,sub,trial_num,trial_num_within_goal,current_state,decision,got_to_goal,got_to_goal_last,goal_switch,control_regressor,RT,eligible_decisions_accuracy,retrieved_cached,planning_depth,delayed_planning,choices,worry,optimally_delayed,optimally_control_choice,optimally_delayed_last
0,5608a73fd7def20012b7389d_thisExp_2024-06-24_11h56.38.318.csv,-0.9322033898305084,1,start,1,0,0,1,1,2.0955609235597192,1,0,3,1,space,30,0,0,0
1,5608a73fd7def20012b7389d_thisExp_2024-06-24_11h56.38.318.csv,-0.8813559322033898,2,start,1,1,0,1,1,2.751531057713746,1,0,3,1,right,30,1,1,0
2,5608a73fd7def20012b7389d_thisExp_2024-06-24_11h56.38.318.csv,-0.864406779661017,3,start,1,0,1,0,1,1.3839415955362935,1,1,3,1,right,30,0,1,1
3,5608a73fd7def20012b7389d_thisExp_2024-06-24_11h56.38.318.csv,-0.7966101694915254,4,start,1,0,0,1,1,0.7268237069193291,1,0,3,1,space,30,0,0,0
4,5608a73fd7def20012b7389d_thisExp_2024-06-24_11h56.38.318.csv,-0.7796610169491526,5,start,1,1,0,0,1,1.804922455754336,1,0,3,1,right,30,1,1,0
5,5608a73fd7def20012b7389d_thisExp_2024-06-24_11h56.38.318.csv,-0.711864406779661,6,start,1,1,1,1,1,2.1004689088719113,1,1,3,1,right,30,1,1,1
6,5608a73fd7def20012b7389d_thisExp_2024-06-24_11h56.38.318.csv,-0.6440677966101694,7,start,1,1,1,1,1,1.5562058978371638,1,1,3,1,right,30,1,1,1
7,5608a73fd7def20012b7389d_thisExp_2024-06-24_11h56.38.318.csv,-0.6271186440677966,8,start,1,1,1,0,1,0.8492958630498767,1,1,3,1,right,30,1,1,1
8,5608a73fd7def20012b7389d_thisExp_2024-06-24_11h56.38.318.csv,-0.5932203389830508,9,start,1,0,1,1,1,1.6340329592894807,1,0,3,1,left,30,0,1,1
9,5608a73fd7def20012b7389d_thisExp_2024-06-24_11h56.38.318.csv,-0.5423728813559322,10,start,1,1,0,1,1,0.8725478089262362,1,0,3,1,right,30,1,1,0
10,5608a73fd7def20012b7389d_thisExp_2024-06-24_11h56.38.318.csv,-0.5084745762711864,11,start,1,1,1,1,1,0.6241721660564141,1,1,3,1,right,30,1,1,1
11,5608a73fd7def20012b7389d_thisExp_2024-06-24_11h56.38.318.csv,-0.423728813559322,12,start,1,1,1,1,1,0.13374387004959568,1,1,3,1,right,30,1,1,1
12,5608a73fd7def20012b7389d_thisExp_2024-06-24_11h56.38.318.csv,-0.4067796610169492,13,start,1,1,1,0,1,-0.10524941071909748,1,1,3,1,right,30,1,1,1
13,5608a73fd7def20012b7389d_thisExp_2024-06-24_11h56.38.318.csv,-0.3389830508474576,14,start,1,1,1,1,1,1.3628465983823272,1,1,3,1,right,30,1,1,1
14,5608a73fd7def20012b7389d_thisExp_2024-06-24_11h56.38.318.csv,-0.3050847457627119,15,start,1,1,1,1,1,0.35079770676585614,1,1,3,1,right,30,1,1,1
15,5608a73fd7def20012b7389d_thisExp_2024-06-24_11h56.38.318.csv,-0.288135593220339,16,start,1,1,1,0,1,1.087719847501686,1,1,3,1,right,30,1,1,1
16,5608a73fd7def20012b7389d_thisExp_2024-06-24_11h56.38.318.csv,-0.23728813559322035,17,start,1,1,1,1,1,0.5730677602294036,1,1,3,1,right,30,1,1,1
17,5608a73fd7def20012b7389d_thisExp_2024-06-24_11h56.38.318.csv,-0.2033898305084746,18,start,1,1,1,1,1,0.20057069046181777,1,1,3,1,right,30,1,1,1
18,5608a73fd7def20012b7389d_thisExp_2024-06-24_11h56.38.318.csv,-0.1694915254237288,19,start,1,1,1,1,1,-0.08664780672567216,1,1,3,1,right,30,1,1,1
19,5608a73fd7def20012b7389d_thisExp_2024-06-24_11h56.38.318.csv,-0.13559322033898305,20,start,1,1,1,1,1,0.36067692531803025,1,1,3,1,right,30,1,1,1
20,5608a73fd7def20012b7389d_thisExp_2024-06-24_11h56.38.318.csv,-0.9322033898305084,1,images/baby.png,2,0,1,1,1,1.8192287112175998,0,0,3,0,space,30,0,0,1
21,5608a73fd7def20012b7389d_thisExp_2024-06-24_11h56.38.318.csv,-0.8813559322033898,2,images/toothbrush.png,2,1,0,1,1,1.5513425892433883,1,0,3,0,left,30,1,1,0
22,5608a73fd7def20012b7389d_thisExp_2024-06-24_11h56.38.318.csv,-0.864406779661017,3,images/toothbrush.png,2,0,1,0,1,1.8925545792629497,1,0,3,0,right,30,0,1,1
23,5608a73fd7def20012b7389d_thisExp_2024-06-24_11h56.38.318.csv,-0.7966101694915254,4,images/baby.png,2,0,0,1,1,1.0597675048445425,0,1,3,0,space,30,0,0,0
24,5608a73fd7def20012b7389d_thisExp_2024-06-24_11h56.38.318.csv,-0.7796610169491526,5,images/toothbrush.png,2,1,0,0,1,2.2500489212912154,1,0,3,0,left,30,1,1,0
25,5608a73fd7def20012b7389d_thisExp_2024-06-24_11h56.38.318.csv,-0.711864406779661,6,images/toothbrush.png,2,1,1,1,1,0.7739895684040461,1,1,3,0,left,30,1,1,1
26,5608a73fd7def20012b7389d_thisExp_2024-06-24_11h56.38.318.csv,-0.6440677966101694,7,images/toothbrush.png,2,1,1,1,1,1.0767415242498932,1,1,3,0,left,30,1,1,1
27,5608a73fd7def20012b7389d_thisExp_2024-06-24_11h56.38.318.csv,-0.6271186440677966,8,images/toothbrush.png,2,1,1,0,1,0.45881628360515897,1,1,3,0,left,30,1,1,1
28,5608a73fd7def20012b7389d_thisExp_2024-06-24_11h56.38.318.csv,-0.5932203389830508,9,images/baby.png,2,0,1,1,1,1.082313515698607,0,1,3,0,space,30,0,0,1
29,5608a73fd7def20012b7389d_thisExp_2024-06-24_11h56.38.318.csv,-0.5423728813559322,10,images/toothbrush.png,2,1,0,1,1,1.2277088620025196,1,1,3,0,left,30,1,1,0
30,5608a73fd7def20012b7389d_thisExp_2024-06-24_11h56.38.318.csv,-0.5084745762711864,11,images/toothbrush.png,2,1,1,1,1,-0.3011050927839216,1,1,3,0,left,30,1,1,1
31,5608a73fd7def20012b7389d_thisExp_2024-06-24_11h56.38.318.csv,-0.423728813559322,12,images/toothbrush.png,2,1,1,1,1,0.11760524207426343,1,1,3,0,left,30,1,1,1
32,5608a73fd7def20012b7389d_thisExp_2024-06-24_11h56.38.318.csv,-0.4067796610169492,13,images/toothbrush.png,2,1,1,0,1,-0.5144990291322996,1,1,3,0,left,30,1,1,1
33,5608a73fd7def20012b7389d_thisExp_2024-06-24_11h56.38.318.csv,-0.3389830508474576,14,images/toothbrush.png,2,1,1,1,1,-0.5769654262705357,1,1,3,0,left,30,1,1,1
34,5608a73fd7def20012b7389d_thisExp_2024-06-24_11h56.38.318.csv,-0.3050847457627119,15,images/toothbrush.png,2,1,1,1,1,-0.323240167852495,1,1,3,0,left,30,1,1,1
35,5608a73fd7def20012b7389d_thisExp_2024-06-24_11h56.38.318.csv,-0.288135593220339,16,images/toothbrush.png,2,1,1,0,1,-0.8753887405537293,1,1,3,0,left,30,1,1,1
36,5608a73fd7def20012b7389d_thisExp_2024-06-24_11h56.38.318.csv,-0.23728813559322035,17,images/toothbrush.png,2,1,1,1,1,0.07594200357515733,1,1,3,0,left,30,1,1,1
37,5608a73fd7def20012b7389d_thisExp_2024-06-24_11h56.38.318.csv,-0.2033898305084746,18,images/toothbrush.png,2,1,1,1,1,-0.2697111871305446,1,1,3,0,left,30,1,1,1
38,5608a73fd7def20012b7389d_thisExp_2024-06-24_11h56.38.318.csv,-0.1694915254237288,19,images/toothbrush.png,2,1,1,1,1,0.8019567414172205,1,1,3,0,left,30,1,1,1
39,5608a73fd7def20012b7389d_thisExp_2024-06-24_11h56.38.318.csv,-0.13559322033898305,20,images/toothbrush.png,2,1,1,1,1,-0.6328049515537836,1,1,3,0,left,30,1,1,1
40,5608a73fd7def20012b7389d_thisExp_2024-06-24_11h56.38.318.csv,-0.9322033898305084,1,images/bowtie.png,3,0,1,1,1,0.9487966434304141,0,0,3,0,space,30,0,0,1
41,5608a73fd7def20012b7389d_thisExp_2024-06-24_11h56.38.318.csv,-0.8813559322033898,2,images/car.png,3,1,0,1,1,0.5192698705486537,0,0,3,0,left,30,1,1,0
42,5608a73fd7def20012b7389d_thisExp_2024-06-24_11h56.38.318.csv,-0.864406779661017,3,images/backpack.png,3,0,1,0,1,0.9033270654822964,0,0,3,0,space,30,0,0,1
43,5608a73fd7def20012b7389d_thisExp_2024-06-24_11h56.38.318.csv,-0.7966101694915254,4,images/backpack.png,3,0,0,1,1,0.5432540909853283,0,0,3,0,space,30,0,0,0
44,5608a73fd7def20012b7389d_thisExp_2024-06-24_11h56.38.318.csv,-0.7796610169491526,5,images/car.png,3,1,0,0,1,1.0680843502991513,0,0,3,0,left,30,1,1,0
45,5608a73fd7def20012b7389d_thisExp_2024-06-24_11h56.38.318.csv,-0.711864406779661,6,images/car.png,3,1,1,1,1,0.20530539318432994,0,0,3,0,left,30,1,1,1
46,5608a73fd7def20012b7389d_thisExp_2024-06-24_11h56.38.318.csv,-0.6440677966101694,7,images/car.png,3,1,1,1,1,0.8258845079981396,0,0,3,0,left,30,1,1,1
47,5608a73fd7def20012b7389d_thisExp_2024-06-24_11h56.38.318.csv,-0.6271186440677966,8,images/car.png,3,1,1,0,1,0.07825649796576735,0,0,3,0,left,30,1,1,1
48,5608a73fd7def20012b7389d_thisExp_2024-06-24_11h56.38.318.csv,-0.5932203389830508,9,images/bowtie.png,3,0,1,1,1,0.44635110058050687,0,0,3,0,space,30,0,0,1
49,5608a73fd7def20012b7389d_thisExp_2024-06-24_11h56.38.318.csv,-0.5423728813559322,10,images/car.png,3,1,0,1,1,0.7623000392482621,0,0,3,0,left,30,1,1,0
50,5608a73fd7def20012b7389d_thisExp_2024-06-24_11h56.38.318.csv,-0.5084745762711864,11,images/car.png,3,1,1,1,1,-0.34446408655076544,0,0,3,0,left,30,1,1,1
51,5608a73fd7def20012b7389d_thisExp_2024-06-24_11h56.38.318.csv,-0.423728813559322,12,images/car.png,3,1,1,1,1,-0.9665319483109017,0,0,3,0,left,30,1,1,1
52,5608a73fd7def20012b7389d_thisExp_2024-06-24_11h56.38.318.csv,-0.4067796610169492,13,images/car.png,3,1,1,0,1,-0.48272419365511593,0,0,3,0,left,30,1,1,1
53,5608a73fd7def20012b7389d_thisExp_2024-06-24_11h56.38.318.csv,-0.3389830508474576,14,images/car.png,3,1,1,1,1,-0.5693378948336589,0,0,3,0,left,30,1,1,1
54,5608a73fd7def20012b7389d_thisExp_2024-06-24_11h56.38.318.csv,-0.3050847457627119,15,images/car.png,3,1,1,1,1,-1.452006904485272,0,1,3,0,left,30,1,1,1
55,5608a73fd7def20012b7389d_thisExp_2024-06-24_11h56.38.318.csv,-0.288135593220339,16,images/car.png,3,1,1,0,1,-1.4196443408014447,0,1,3,0,left,30,1,1,1
56,5608a73fd7def20012b7389d_thisExp_2024-06-24_11h56.38.318.csv,-0.23728813559322035,17,images/car.png,3,1,1,1,1,-1.2772606000957683,0,1,3,0,left,30,1,1,1
57,5608a73fd7def20012b7389d_thisExp_2024-06-24_11h56.38.318.csv,-0.2033898305084746,18,images/car.png,3,1,1,1,1,-1.252113179653871,0,1,3,0,left,30,1,1,1
58,5608a73fd7def20012b7389d_thisExp_2024-06-24_11h56.38.318.csv,-0.1694915254237288,19,images/car.png,3,1,1,1,1,-1.2275826699650698,0,0,3,0,left,30,1,1,1
59,5608a73fd7def20012b7389d_thisExp_2024-06-24_11h56.38.318.csv,-0.13559322033898305,20,images/car.png,3,1,1,1,1,-0.22189433191377778,0,0,3,0,left,30,1,1,1
60,566feba6b937e400052d33b2_thisExp_2024-06-24_20h01.29.945.csv,-0.9491525423728814,1,start,1,0,0,1,1,1.2090797416940806,1,0,3,1,right,30,1,1,0
61,566feba6b937e400052d33b2_thisExp_2024-06-24_20h01.29.945.csv,-0.9152542372881356,2,start,1,0,0,1,1,0.9521596802883978,1,0,3,1,left,30,1,1,1
62,566feba6b937e400052d33b2_thisExp_2024-06-24_20h01.29.945.csv,-0.8305084745762712,3,start,1,0,0,1,1,1.2715847227359558,1,0,3,1,right,30,1,1,1
63,566feba6b937e400052d33b2_thisExp_2024-06-24_20h01.29.945.csv,-0.7966101694915254,4,start,1,0,0,1,1,0.41104948640206496,1,0,3,1,left,30,1,1,1
64,566feba6b937e400052d33b2_thisExp_2024-06-24_20h01.29.945.csv,-0.7796610169491526,5,start,1,0,0,0,1,0.8909318974072649,1,0,3,1,right,30,1,1,1
65,566feba6b937e400052d33b2_thisExp_2024-06-24_20h01.29.945.csv,-0.7627118644067796,6,start,1,1,0,0,1,0.360746643308786,1,1,3,1,right,30,1,1,1
66,566feba6b937e400052d33b2_thisExp_2024-06-24_20h01.29.945.csv,-0.6949152542372882,7,start,1,1,1,1,1,0.25021382283687305,1,1,3,1,right,30,1,1,1
67,566feba6b937e400052d33b2_thisExp_2024-06-24_20h01.29.945.csv,-0.6779661016949152,8,start,1,1,1,0,1,0.8187661019841037,1,1,3,1,right,30,1,1,1
68,566feba6b937e400052d33b2_thisExp_2024-06-24_20h01.29.945.csv,-0.6271186440677966,9,start,1,1,1,1,1,1.4496681417104662,1,1,3,1,right,30,1,1,1
69,566feba6b937e400052d33b2_thisExp_2024-06-24_20h01.29.945.csv,-0.6101694915254238,10,start,1,1,1,0,1,0.27717708780663336,1,1,3,1,right,30,1,1,1
70,566feba6b937e400052d33b2_thisExp_2024-06-24_20h01.29.945.csv,-0.559322033898305,11,start,1,1,1,1,1,0.397768901473694,1,1,3,1,right,30,1,1,1
71,566feba6b937e400052d33b2_thisExp_2024-06-24_20h01.29.945.csv,-0.3898305084745763,12,start,1,1,1,1,1,0.3568349311400976,1,1,3,1,right,30,1,1,1
72,566feba6b937e400052d33b2_thisExp_2024-06-24_20h01.29.945.csv,-0.3220338983050847,13,start,1,1,1,1,1,0.43883540758327005,1,1,3,1,right,30,1,1,1
73,566feba6b937e400052d33b2_thisExp_2024-06-24_20h01.29.945.csv,-0.2711864406779661,14,start,1,1,1,1,1,1.4627460132802217,1,1,3,1,right,30,1,1,1
74,566feba6b937e400052d33b2_thisExp_2024-06-24_20h01.29.945.csv,-0.15254237288135594,15,start,1,1,1,1,1,0.6315376989282541,1,1,3,1,right,30,1,1,1
75,566feba6b937e400052d33b2_thisExp_2024-06-24_20h01.29.945.csv,-0.0847457627118644,16,start,1,0,1,1,1,-0.6273594400219421,1,0,3,1,left,30,1,1,1
76,566feba6b937e400052d33b2_thisExp_2024-06-24_20h01.29.945.csv,-0.06779661016949153,17,start,1,1,0,0,1,1.1098159591754349,1,0,3,1,right,30,1,1,1
77,566feba6b937e400052d33b2_thisExp_2024-06-24_20h01.29.945.csv,-0.05084745762711865,18,start,1,1,1,0,1,0.32851206694003626,1,1,3,1,right,30,1,1,1
78,566feba6b937e400052d33b2_thisExp_2024-06-24_20h01.29.945.csv,-0.03389830508474576,19,start,1,1,1,0,1,0.0007996801705642441,1,1,3,1,right,30,1,1,1
79,566feba6b937e400052d33b2_thisExp_2024-06-24_20h01.29.945.csv,0.0,20,start,1,1,1,1,1,0.08194858264716733,1,1,3,1,right,30,1,1,1
80,566feba6b937e400052d33b2_thisExp_2024-06-24_20h01.29.945.csv,-0.9491525423728814,1,images/toothbrush.png,2,0,1,1,1,0.24467018185848982,1,0,3,0,right,30,1,1,1
81,566feba6b937e400052d33b2_thisExp_2024-06-24_20h01.29.945.csv,-0.9152542372881356,2,images/baby.png,2,0,0,1,1,0.6334502533018179,0,0,3,0,right,30,1,1,1
82,566feba6b937e400052d33b2_thisExp_2024-06-24_20h01.29.945.csv,-0.8305084745762712,3,images/toothbrush.png,2,0,0,1,1,0.8033907546587045,1,1,3,0,right,30,1,1,1
83,566feba6b937e400052d33b2_thisExp_2024-06-24_20h01.29.945.csv,-0.7966101694915254,4,images/baby.png,2,0,0,1,1,0.7909995807274499,0,1,3,0,right,30,1,1,1
84,566feba6b937e400052d33b2_thisExp_2024-06-24_20h01.29.945.csv,-0.7796610169491526,5,images/toothbrush.png,2,0,0,0,1,0.7812038443802285,1,1,3,0,right,30,1,1,1
85,566feba6b937e400052d33b2_thisExp_2024-06-24_20h01.29.945.csv,-0.7627118644067796,6,images/toothbrush.png,2,1,0,0,1,0.22721525068426354,1,0,3,0,left,30,1,1,1
86,566feba6b937e400052d33b2_thisExp_2024-06-24_20h01.29.945.csv,-0.6949152542372882,7,images/toothbrush.png,2,1,1,1,1,-0.6626179755251225,1,1,3,0,left,30,1,1,1
87,566feba6b937e400052d33b2_thisExp_2024-06-24_20h01.29.945.csv,-0.6779661016949152,8,images/toothbrush.png,2,1,1,0,1,-0.40436571266486343,1,1,3,0,left,30,1,1,1
88,566feba6b937e400052d33b2_thisExp_2024-06-24_20h01.29.945.csv,-0.6271186440677966,9,images/toothbrush.png,2,1,1,1,1,-0.4361820807702249,1,1,3,0,left,30,1,1,1
89,566feba6b937e400052d33b2_thisExp_2024-06-24_20h01.29.945.csv,-0.6101694915254238,10,images/toothbrush.png,2,1,1,0,1,-0.5661621688054566,1,1,3,0,left,30,1,1,1
90,566feba6b937e400052d33b2_thisExp_2024-06-24_20h01.29.945.csv,-0.559322033898305,11,images/toothbrush.png,2,1,1,1,1,-0.7954014145987017,1,1,3,0,left,30,1,1,1
91,566feba6b937e400052d33b2_thisExp_2024-06-24_20h01.29.945.csv,-0.3898305084745763,12,images/toothbrush.png,2,1,1,1,1,-0.8749088940953859,1,1,3,0,left,30,1,1,1
92,566feba6b937e400052d33b2_thisExp_2024-06-24_20h01.29.945.csv,-0.3220338983050847,13,images/toothbrush.png,2,1,1,1,1,-0.9975007872996983,1,1,3,0,left,30,1,1,1
93,566feba6b937e400052d33b2_thisExp_2024-06-24_20h01.29.945.csv,-0.2711864406779661,14,images/toothbrush.png,2,1,1,1,1,-0.6418838866224038,1,1,3,0,left,30,1,1,1
94,566feba6b937e400052d33b2_thisExp_2024-06-24_20h01.29.945.csv,-0.15254237288135594,15,images/toothbrush.png,2,1,1,1,1,-0.04520659283807923,1,1,3,0,left,30,1,1,1
95,566feba6b937e400052d33b2_thisExp_2024-06-24_20h01.29.945.csv,-0.0847457627118644,16,images/baby.png,2,0,1,1,1,-0.8416471888783893,0,0,3,0,left,30,1,1,1
96,566feba6b937e400052d33b2_thisExp_2024-06-24_20h01.29.945.csv,-0.06779661016949153,17,images/toothbrush.png,2,1,0,0,1,-1.1035243330291302,1,1,3,0,left,30,1,1,1
97,566feba6b937e400052d33b2_thisExp_2024-06-24_20h01.29.945.csv,-0.05084745762711865,18,images/toothbrush.png,2,1,1,0,1,-1.0963149296194261,1,1,3,0,left,30,1,1,1
98,566feba6b937e400052d33b2_thisExp_2024-06-24_20h01.29.945.csv,-0.03389830508474576,19,images/toothbrush.png,2,1,1,0,1,-1.2023075250068749,1,1,3,0,left,30,1,1,1
99,566feba6b937e400052d33b2_thisExp_2024-06-24_20h01.29.945.csv,0.0,20,images/toothbrush.png,2,1,1,1,1,-0.20936392790583797,1,1,3,0,left,30,1,1,1
100,566feba6b937e400052d33b2_thisExp_2024-06-24_20h01.29.945.csv,-0.9491525423728814,1,images/backpack.png,3,0,1,1,1,0.18273813667917077,0,0,3,0,right,30,1,1,1
101,566feba6b937e400052d33b2_thisExp_2024-06-24_20h01.29.945.csv,-0.9152542372881356,2,images/bowtie.png,3,0,0,1,1,0.6425378627334033,0,0,3,0,right,30,1,1,1
102,566feba6b937e400052d33b2_thisExp_2024-06-24_20h01.29.945.csv,-0.8305084745762712,3,images/backpack.png,3,0,0,1,1,1.8106139347425863,0,0,3,0,left,30,1,1,1
103,566feba6b937e400052d33b2_thisExp_2024-06-24_20h01.29.945.csv,-0.7966101694915254,4,images/bowtie.png,3,0,0,1,1,0.5974069082791095,0,1,3,0,right,30,1,1,1
104,566feba6b937e400052d33b2_thisExp_2024-06-24_20h01.29.945.csv,-0.7796610169491526,5,images/backpack.png,3,0,0,0,1,0.20920688557533662,0,0,3,0,right,30,1,1,1
105,566feba6b937e400052d33b2_thisExp_2024-06-24_20h01.29.945.csv,-0.7627118644067796,6,images/car.png,3,1,0,0,1,0.5879533176814398,0,0,3,0,left,30,1,1,1
106,566feba6b937e400052d33b2_thisExp_2024-06-24_20h01.29.945.csv,-0.6949152542372882,7,images/car.png,3,1,1,1,1,-0.022859294146082558,0,0,3,0,left,30,1,1,1
107,566feba6b937e400052d33b2_thisExp_2024-06-24_20h01.29.945.csv,-0.6779661016949152,8,images/car.png,3,1,1,0,1,-0.5381968205621227,0,0,3,0,left,30,1,1,1
108,566feba6b937e400052d33b2_thisExp_2024-06-24_20h01.29.945.csv,-0.6271186440677966,9,images/car.png,3,1,1,1,1,0.07705362944229147,0,0,3,0,left,30,1,1,1
109,566feba6b937e400052d33b2_thisExp_2024-06-24_20h01.29.945.csv,-0.6101694915254238,10,images/car.png,3,1,1,0,1,-0.6593256320844346,0,0,3,0,left,30,1,1,1
110,566feba6b937e400052d33b2_thisExp_2024-06-24_20h01.29.945.csv,-0.559322033898305,11,images/car.png,3,1,1,1,1,-0.9260885743542661,0,0,3,0,left,30,1,1,1
111,566feba6b937e400052d33b2_thisExp_2024-06-24_20h01.29.945.csv,-0.3898305084745763,12,images/car.png,3,1,1,1,1,-0.3158072361776291,0,0,3,0,left,30,1,1,1
112,566feba6b937e400052d33b2_thisExp_2024-06-24_20h01.29.945.csv,-0.3220338983050847,13,images/car.png,3,1,1,1,1,-1.0981124136264586,0,1,3,0,left,30,1,1,1
113,566feba6b937e400052d33b2_thisExp_2024-06-24_20h01.29.945.csv,-0.2711864406779661,14,images/car.png,3,1,1,1,1,-0.17066970405350712,0,1,3,0,left,30,1,1,1
114,566feba6b937e400052d33b2_thisExp_2024-06-24_20h01.29.945.csv,-0.15254237288135594,15,images/car.png,3,1,1,1,1,-0.7881174181511722,0,0,3,0,left,30,1,1,1
115,566feba6b937e400052d33b2_thisExp_2024-06-24_20h01.29.945.csv,-0.0847457627118644,16,images/backpack.png,3,0,1,1,1,0.2626719094476132,0,0,3,0,right,30,1,1,1
116,566feba6b937e400052d33b2_thisExp_2024-06-24_20h01.29.945.csv,-0.06779661016949153,17,images/car.png,3,1,0,0,1,-1.101416216000844,0,1,3,0,left,30,1,1,1
117,566feba6b937e400052d33b2_thisExp_2024-06-24_20h01.29.945.csv,-0.05084745762711865,18,images/car.png,3,1,1,0,1,-1.14601841106538,0,1,3,0,left,30,1,1,1
118,566feba6b937e400052d33b2_thisExp_2024-06-24_20h01.29.945.csv,-0.03389830508474576,19,images/car.png,3,1,1,0,1,-1.201974801663263,0,1,3,0,left,30,1,1,1
119,566feba6b937e400052d33b2_thisExp_2024-06-24_20h01.29.945.csv,0.0,20,images/car.png,3,1,1,1,1,-1.1504320373979062,0,1,3,0,left,30,1,1,1
120,582b12291bdd2f00018054f4_thisExp_2024-06-24_14h51.41.849.csv,-0.9491525423728814,1,start,1,0,0,1,1,0.2851037514369805,1,0,3,1,space,49,0,0,0
121,582b12291bdd2f00018054f4_thisExp_2024-06-24_14h51.41.849.csv,-0.847457627118644,2,start,1,0,0,1,1,0.6543543758407898,1,1,3,1,space,49,0,0,0
122,582b12291bdd2f00018054f4_thisExp_2024-06-24_14h51.41.849.csv,-0.8135593220338984,3,start,1,1,0,1,1,0.9364462380777194,1,0,3,1,right,49,1,1,0
123,582b12291bdd2f00018054f4_thisExp_2024-06-24_14h51.41.849.csv,-0.7457627118644068,4,start,1,1,1,1,1,0.4449421986503644,1,1,3,1,right,49,1,1,1
124,582b12291bdd2f00018054f4_thisExp_2024-06-24_14h51.41.849.csv,-0.6271186440677966,5,start,1,1,1,1,1,0.5976819887418791,1,1,3,1,right,49,1,1,1
125,582b12291bdd2f00018054f4_thisExp_2024-06-24_14h51.41.849.csv,-0.5254237288135594,6,start,1,1,1,1,1,0.06737823532994819,1,1,3,1,right,49,1,1,1
126,582b12291bdd2f00018054f4_thisExp_2024-06-24_14h51.41.849.csv,-0.4745762711864407,7,start,1,1,1,1,1,0.09057169818438696,1,1,3,1,right,49,1,1,1
127,582b12291bdd2f00018054f4_thisExp_2024-06-24_14h51.41.849.csv,-0.423728813559322,8,start,1,1,1,1,1,-0.14884809673641589,1,1,3,1,right,49,1,1,1
128,582b12291bdd2f00018054f4_thisExp_2024-06-24_14h51.41.849.csv,-0.4067796610169492,9,start,1,1,1,0,1,0.08718636167891596,1,1,3,1,right,49,1,1,1
129,582b12291bdd2f00018054f4_thisExp_2024-06-24_14h51.41.849.csv,-0.3220338983050847,10,start,1,1,1,1,1,0.46020578676562457,1,1,3,1,right,49,1,1,1
130,582b12291bdd2f00018054f4_thisExp_2024-06-24_14h51.41.849.csv,-0.3050847457627119,11,start,1,1,1,0,1,0.4567284020457059,1,1,3,1,right,49,1,1,1
131,582b12291bdd2f00018054f4_thisExp_2024-06-24_14h51.41.849.csv,-0.288135593220339,12,start,1,1,1,0,1,-0.19322073766295517,1,1,3,1,right,49,1,1,1
132,582b12291bdd2f00018054f4_thisExp_2024-06-24_14h51.41.849.csv,-0.23728813559322035,13,start,1,1,1,1,1,0.62716762162597,1,1,3,1,right,49,1,1,1
133,582b12291bdd2f00018054f4_thisExp_2024-06-24_14h51.41.849.csv,-0.2033898305084746,14,start,1,1,1,1,1,1.4777106057531704,1,1,3,1,right,49,1,1,1
134,582b12291bdd2f00018054f4_thisExp_2024-06-24_14h51.41.849.csv,-0.13559322033898305,15,start,1,1,1,1,1,-0.08490450709044402,1,1,3,1,right,49,1,1,1
135,582b12291bdd2f00018054f4_thisExp_2024-06-24_14h51.41.849.csv,-0.1016949152542373,16,start,1,1,1,1,1,-0.3771692389533171,1,1,3,1,right,49,1,1,1
136,582b12291bdd2f00018054f4_thisExp_2024-06-24_14h51.41.849.csv,-0.0847457627118644,17,start,1,1,1,0,1,0.14988444953729202,1,1,3,1,right,49,1,1,1
137,582b12291bdd2f00018054f4_thisExp_2024-06-24_14h51.41.849.csv,-0.06779661016949153,18,start,1,1,1,0,1,-0.1854865601371112,1,1,3,1,right,49,1,1,1
138,582b12291bdd2f00018054f4_thisExp_2024-06-24_14h51.41.849.csv,-0.03389830508474576,19,start,1,1,1,1,1,-0.2860833510880839,1,1,3,1,right,49,1,1,1
139,582b12291bdd2f00018054f4_thisExp_2024-06-24_14h51.41.849.csv,0.0,20,start,1,1,1,1,1,-0.3229638865964207,1,1,3,1,right,49,1,1,1
140,582b12291bdd2f00018054f4_thisExp_2024-06-24_14h51.41.849.csv,-0.9491525423728814,1,images/baby.png,2,0,1,1,1,0.7755102709850684,0,0,3,0,left,49,0,1,1
141,582b12291bdd2f00018054f4_thisExp_2024-06-24_14h51.41.849.csv,-0.847457627118644,2,images/baby.png,2,0,0,1,1,0.7038892770918473,0,1,3,0,left,49,0,1,0
142,582b12291bdd2f00018054f4_thisExp_2024-06-24_14h51.41.849.csv,-0.8135593220338984,3,images/toothbrush.png,2,1,0,1,1,-0.8608560249860545,1,0,3,0,left,49,1,1,0
143,582b12291bdd2f00018054f4_thisExp_2024-06-24_14h51.41.849.csv,-0.7457627118644068,4,images/toothbrush.png,2,1,1,1,1,-0.8615658321849086,1,1,3,0,left,49,1,1,1
144,582b12291bdd2f00018054f4_thisExp_2024-06-24_14h51.41.849.csv,-0.6271186440677966,5,images/toothbrush.png,2,1,1,1,1,-1.0808706071919527,1,1,3,0,left,49,1,1,1
145,582b12291bdd2f00018054f4_thisExp_2024-06-24_14h51.41.849.csv,-0.5254237288135594,6,images/toothbrush.png,2,1,1,1,1,-1.1946827574188432,1,1,3,0,left,49,1,1,1
146,582b12291bdd2f00018054f4_thisExp_2024-06-24_14h51.41.849.csv,-0.4745762711864407,7,images/toothbrush.png,2,1,1,1,1,-1.236495996031496,1,1,3,0,left,49,1,1,1
147,582b12291bdd2f00018054f4_thisExp_2024-06-24_14h51.41.849.csv,-0.423728813559322,8,images/toothbrush.png,2,1,1,1,1,-1.313415715707318,1,1,3,0,left,49,1,1,1
148,582b12291bdd2f00018054f4_thisExp_2024-06-24_14h51.41.849.csv,-0.4067796610169492,9,images/toothbrush.png,2,1,1,0,1,-1.2949922027131047,1,1,3,0,left,49,1,1,1
149,582b12291bdd2f00018054f4_thisExp_2024-06-24_14h51.41.849.csv,-0.3220338983050847,10,images/toothbrush.png,2,1,1,1,1,-1.4126383364594925,1,1,3,0,left,49,1,1,1
150,582b12291bdd2f00018054f4_thisExp_2024-06-24_14h51.41.849.csv,-0.3050847457627119,11,images/toothbrush.png,2,1,1,0,1,-1.7556204226121817,1,1,3,0,left,49,1,1,1
151,582b12291bdd2f00018054f4_thisExp_2024-06-24_14h51.41.849.csv,-0.288135593220339,12,images/toothbrush.png,2,1,1,0,1,-1.4779711496917947,1,1,3,0,left,49,1,1,1
152,582b12291bdd2f00018054f4_thisExp_2024-06-24_14h51.41.849.csv,-0.23728813559322035,13,images/toothbrush.png,2,1,1,1,1,-0.911800826601303,1,1,3,0,left,49,1,1,1
153,582b12291bdd2f00018054f4_thisExp_2024-06-24_14h51.41.849.csv,-0.2033898305084746,14,images/toothbrush.png,2,1,1,1,1,-1.5250967640003494,1,1,3,0,left,49,1,1,1
154,582b12291bdd2f00018054f4_thisExp_2024-06-24_14h51.41.849.csv,-0.13559322033898305,15,images/toothbrush.png,2,1,1,1,1,-0.9413521624695262,1,1,3,0,left,49,1,1,1
155,582b12291bdd2f00018054f4_thisExp_2024-06-24_14h51.41.849.csv,-0.1016949152542373,16,images/toothbrush.png,2,1,1,1,1,-1.0744075999712923,1,1,3,0,left,49,1,1,1
156,582b12291bdd2f00018054f4_thisExp_2024-06-24_14h51.41.849.csv,-0.0847457627118644,17,images/toothbrush.png,2,1,1,0,1,-0.840719545027081,1,1,3,0,left,49,1,1,1
157,582b12291bdd2f00018054f4_thisExp_2024-06-24_14h51.41.849.csv,-0.06779661016949153,18,images/toothbrush.png,2,1,1,0,1,0.3088807835927747,1,1,3,0,left,49,1,1,1
158,582b12291bdd2f00018054f4_thisExp_2024-06-24_14h51.41.849.csv,-0.03389830508474576,19,images/toothbrush.png,2,1,1,1,1,-1.3528595850336531,1,1,3,0,left,49,1,1,1
159,582b12291bdd2f00018054f4_thisExp_2024-06-24_14h51.41.849.csv,0.0,20,images/toothbrush.png,2,1,1,1,1,-1.7270959559023327,1,1,3,0,left,49,1,1,1
160,582b12291bdd2f00018054f4_thisExp_2024-06-24_14h51.41.849.csv,-0.9491525423728814,1,images/backpack.png,3,0,1,1,1,-0.15525128527129137,0,0,3,0,left,49,0,1,1
161,582b12291bdd2f00018054f4_thisExp_2024-06-24_14h51.41.849.csv,-0.847457627118644,2,images/backpack.png,3,0,0,1,1,-0.5079962967558309,0,0,3,0,left,49,0,1,0
162,582b12291bdd2f00018054f4_thisExp_2024-06-24_14h51.41.849.csv,-0.8135593220338984,3,images/car.png,3,1,0,1,1,-0.9490722213985346,0,0,3,0,left,49,1,1,0
163,582b12291bdd2f00018054f4_thisExp_2024-06-24_14h51.41.849.csv,-0.7457627118644068,4,images/car.png,3,1,1,1,1,-0.7980633505095052,0,0,3,0,left,49,1,1,1
164,582b12291bdd2f00018054f4_thisExp_2024-06-24_14h51.41.849.csv,-0.6271186440677966,5,images/car.png,3,1,1,1,1,-1.3874950816964096,0,0,3,0,left,49,1,1,1
165,582b12291bdd2f00018054f4_thisExp_2024-06-24_14h51.41.849.csv,-0.5254237288135594,6,images/car.png,3,1,1,1,1,-1.637323115923636,0,0,3,0,left,49,1,1,1
166,582b12291bdd2f00018054f4_thisExp_2024-06-24_14h51.41.849.csv,-0.4745762711864407,7,images/car.png,3,1,1,1,1,-1.817077277212345,0,0,3,0,left,49,1,1,1
167,582b12291bdd2f00018054f4_thisExp_2024-06-24_14h51.41.849.csv,-0.423728813559322,8,images/car.png,3,1,1,1,1,-1.9980459034758418,0,0,3,0,left,49,1,1,1
168,582b12291bdd2f00018054f4_thisExp_2024-06-24_14h51.41.849.csv,-0.4067796610169492,9,images/car.png,3,1,1,0,1,-1.783791299578878,0,0,3,0,left,49,1,1,1
169,582b12291bdd2f00018054f4_thisExp_2024-06-24_14h51.41.849.csv,-0.3220338983050847,10,images/car.png,3,1,1,1,1,-0.635822113940676,0,1,3,0,left,49,1,1,1
170,582b12291bdd2f00018054f4_thisExp_2024-06-24_14h51.41.849.csv,-0.3050847457627119,11,images/car.png,3,1,1,0,1,-1.6104384127676838,0,1,3,0,left,49,1,1,1
171,582b12291bdd2f00018054f4_thisExp_2024-06-24_14h51.41.849.csv,-0.288135593220339,12,images/car.png,3,1,1,0,1,-1.6560055482504352,0,1,3,0,left,49,1,1,1
172,582b12291bdd2f00018054f4_thisExp_2024-06-24_14h51.41.849.csv,-0.23728813559322035,13,images/car.png,3,1,1,1,1,-1.2626618006746155,0,0,3,0,left,49,1,1,1
173,582b12291bdd2f00018054f4_thisExp_2024-06-24_14h51.41.849.csv,-0.2033898305084746,14,images/car.png,3,1,1,1,1,-1.2086503938770472,0,1,3,0,left,49,1,1,1
174,582b12291bdd2f00018054f4_thisExp_2024-06-24_14h51.41.849.csv,-0.13559322033898305,15,images/car.png,3,1,1,1,1,-1.6044503709230613,0,0,3,0,left,49,1,1,1
175,582b12291bdd2f00018054f4_thisExp_2024-06-24_14h51.41.849.csv,-0.1016949152542373,16,images/car.png,3,1,1,1,1,-1.479726305912443,0,0,3,0,left,49,1,1,1
176,582b12291bdd2f00018054f4_thisExp_2024-06-24_14h51.41.849.csv,-0.0847457627118644,17,images/car.png,3,1,1,0,1,-1.6570537663757636,0,0,3,0,left,49,1,1,1
177,582b12291bdd2f00018054f4_thisExp_2024-06-24_14h51.41.849.csv,-0.06779661016949153,18,images/car.png,3,1,1,0,1,-1.7492748576218997,0,0,3,0,left,49,1,1,1
178,582b12291bdd2f00018054f4_thisExp_2024-06-24_14h51.41.849.csv,-0.03389830508474576,19,images/car.png,3,1,1,1,1,-1.6144504542576446,0,0,3,0,left,49,1,1,1
179,582b12291bdd2f00018054f4_thisExp_2024-06-24_14h51.41.849.csv,0.0,20,images/car.png,3,1,1,1,1,-1.9582864201233687,0,0,3,0,left,49,1,1,1
180,58ccfada8460040001e1ec4f_thisExp_2024-06-24_13h51.26.094.csv,-0.9322033898305084,1,start,1,1,0,1,1,1.703001112612288,1,0,3,1,right,47,1,1,0
181,58ccfada8460040001e1ec4f_thisExp_2024-06-24_13h51.26.094.csv,-0.8983050847457628,2,start,1,1,1,1,1,1.3681303904922195,1,1,3,1,right,47,1,1,1
182,58ccfada8460040001e1ec4f_thisExp_2024-06-24_13h51.26.094.csv,-0.864406779661017,3,start,1,1,1,1,1,1.4708882349688246,1,1,3,1,right,47,1,1,1
183,58ccfada8460040001e1ec4f_thisExp_2024-06-24_13h51.26.094.csv,-0.847457627118644,4,start,1,1,1,0,1,1.1341402947272552,1,1,3,1,right,47,1,1,1
184,58ccfada8460040001e1ec4f_thisExp_2024-06-24_13h51.26.094.csv,-0.8305084745762712,5,start,1,1,1,0,1,0.29050308963848276,1,1,3,1,right,47,1,1,1
185,58ccfada8460040001e1ec4f_thisExp_2024-06-24_13h51.26.094.csv,-0.7796610169491526,6,start,1,1,1,1,1,0.4162072046400665,1,1,3,1,right,47,1,1,1
186,58ccfada8460040001e1ec4f_thisExp_2024-06-24_13h51.26.094.csv,-0.711864406779661,7,start,1,1,1,1,1,0.26290258108755804,1,1,3,1,right,47,1,1,1
187,58ccfada8460040001e1ec4f_thisExp_2024-06-24_13h51.26.094.csv,-0.6610169491525424,8,start,1,1,1,1,1,0.5650296777795029,1,1,3,1,right,47,1,1,1
188,58ccfada8460040001e1ec4f_thisExp_2024-06-24_13h51.26.094.csv,-0.559322033898305,9,start,1,1,1,1,1,0.17024897555968538,1,1,3,1,right,47,1,1,1
189,58ccfada8460040001e1ec4f_thisExp_2024-06-24_13h51.26.094.csv,-0.5084745762711864,10,start,1,1,1,1,1,0.7541482021173442,1,1,3,1,right,47,1,1,1
190,58ccfada8460040001e1ec4f_thisExp_2024-06-24_13h51.26.094.csv,-0.4915254237288136,11,start,1,1,1,0,1,0.1444466043650281,1,1,3,1,right,47,1,1,1
191,58ccfada8460040001e1ec4f_thisExp_2024-06-24_13h51.26.094.csv,-0.4576271186440678,12,start,1,1,1,1,1,0.017250353406527672,1,1,3,1,right,47,1,1,1
192,58ccfada8460040001e1ec4f_thisExp_2024-06-24_13h51.26.094.csv,-0.423728813559322,13,start,1,1,1,1,1,0.13993584029751666,1,1,3,1,right,47,1,1,1
193,58ccfada8460040001e1ec4f_thisExp_2024-06-24_13h51.26.094.csv,-0.4067796610169492,14,start,1,1,1,0,1,0.04917104400644938,1,1,3,1,right,47,1,1,1
194,58ccfada8460040001e1ec4f_thisExp_2024-06-24_13h51.26.094.csv,-0.3389830508474576,15,start,1,1,1,1,1,0.23712534883462869,1,1,3,1,right,47,1,1,1
195,58ccfada8460040001e1ec4f_thisExp_2024-06-24_13h51.26.094.csv,-0.3220338983050847,16,start,1,1,1,0,1,0.12997507642174547,1,1,3,1,right,47,1,1,1
196,58ccfada8460040001e1ec4f_thisExp_2024-06-24_13h51.26.094.csv,-0.3050847457627119,17,start,1,1,1,0,1,0.023032699110572784,1,1,3,1,right,47,1,1,1
197,58ccfada8460040001e1ec4f_thisExp_2024-06-24_13h51.26.094.csv,-0.22033898305084745,18,start,1,1,1,1,1,0.20343052000418982,1,1,3,1,right,47,1,1,1
198,58ccfada8460040001e1ec4f_thisExp_2024-06-24_13h51.26.094.csv,-0.01694915254237288,19,start,1,1,1,1,1,0.054204054013512186,1,1,3,1,right,47,1,1,1
199,58ccfada8460040001e1ec4f_thisExp_2024-06-24_13h51.26.094.csv,0.0,20,start,1,1,1,0,1,0.18540014640355207,1,1,3,1,right,47,1,1,1
200,58ccfada8460040001e1ec4f_thisExp_2024-06-24_13h51.26.094.csv,-0.9322033898305084,1,images/toothbrush.png,2,1,1,1,1,-0.02132578671475243,1,0,3,0,left,47,1,1,1
201,58ccfada8460040001e1ec4f_thisExp_2024-06-24_13h51.26.094.csv,-0.8983050847457628,2,images/toothbrush.png,2,1,1,1,1,0.39857475740341025,1,1,3,0,left,47,1,1,1
202,58ccfada8460040001e1ec4f_thisExp_2024-06-24_13h51.26.094.csv,-0.864406779661017,3,images/toothbrush.png,2,1,1,1,1,0.24927902491883552,1,1,3,0,left,47,1,1,1
203,58ccfada8460040001e1ec4f_thisExp_2024-06-24_13h51.26.094.csv,-0.847457627118644,4,images/toothbrush.png,2,1,1,0,1,0.17739276355720185,1,1,3,0,left,47,1,1,1
204,58ccfada8460040001e1ec4f_thisExp_2024-06-24_13h51.26.094.csv,-0.8305084745762712,5,images/toothbrush.png,2,1,1,0,1,-0.8446679882011876,1,1,3,0,left,47,1,1,1
205,58ccfada8460040001e1ec4f_thisExp_2024-06-24_13h51.26.094.csv,-0.7796610169491526,6,images/toothbrush.png,2,1,1,1,1,-0.8551956325143442,1,1,3,0,left,47,1,1,1
206,58ccfada8460040001e1ec4f_thisExp_2024-06-24_13h51.26.094.csv,-0.711864406779661,7,images/toothbrush.png,2,1,1,1,1,-0.9816295731824954,1,1,3,0,left,47,1,1,1
207,58ccfada8460040001e1ec4f_thisExp_2024-06-24_13h51.26.094.csv,-0.6610169491525424,8,images/toothbrush.png,2,1,1,1,1,-0.22451949749414074,1,1,3,0,left,47,1,1,1
208,58ccfada8460040001e1ec4f_thisExp_2024-06-24_13h51.26.094.csv,-0.559322033898305,9,images/toothbrush.png,2,1,1,1,1,-0.3762947308083845,1,1,3,0,left,47,1,1,1
209,58ccfada8460040001e1ec4f_thisExp_2024-06-24_13h51.26.094.csv,-0.5084745762711864,10,images/toothbrush.png,2,1,1,1,1,0.034980968895245594,1,1,3,0,left,47,1,1,1
210,58ccfada8460040001e1ec4f_thisExp_2024-06-24_13h51.26.094.csv,-0.4915254237288136,11,images/toothbrush.png,2,1,1,0,1,-0.15548490284039498,1,1,3,0,left,47,1,1,1
211,58ccfada8460040001e1ec4f_thisExp_2024-06-24_13h51.26.094.csv,-0.4576271186440678,12,images/toothbrush.png,2,1,1,1,1,-1.1035243330291302,1,1,3,0,left,47,1,1,1
212,58ccfada8460040001e1ec4f_thisExp_2024-06-24_13h51.26.094.csv,-0.423728813559322,13,images/toothbrush.png,2,1,1,1,1,0.6521168310019534,1,1,3,0,left,47,1,1,1
213,58ccfada8460040001e1ec4f_thisExp_2024-06-24_13h51.26.094.csv,-0.4067796610169492,14,images/toothbrush.png,2,1,1,0,1,-1.351313392224645,1,1,3,0,left,47,1,1,1
214,58ccfada8460040001e1ec4f_thisExp_2024-06-24_13h51.26.094.csv,-0.3389830508474576,15,images/toothbrush.png,2,1,1,1,1,-0.2524436370257619,1,1,3,0,left,47,1,1,1
215,58ccfada8460040001e1ec4f_thisExp_2024-06-24_13h51.26.094.csv,-0.3220338983050847,16,images/toothbrush.png,2,1,1,0,1,-0.2280304728876045,1,1,3,0,left,47,1,1,1
216,58ccfada8460040001e1ec4f_thisExp_2024-06-24_13h51.26.094.csv,-0.3050847457627119,17,images/toothbrush.png,2,1,1,0,1,-0.9245749514618526,1,1,3,0,left,47,1,1,1
217,58ccfada8460040001e1ec4f_thisExp_2024-06-24_13h51.26.094.csv,-0.22033898305084745,18,images/toothbrush.png,2,1,1,1,1,-0.2827608681327128,1,1,3,0,left,47,1,1,1
218,58ccfada8460040001e1ec4f_thisExp_2024-06-24_13h51.26.094.csv,-0.01694915254237288,19,images/toothbrush.png,2,1,1,1,1,-1.0172166504641156,1,1,3,0,left,47,1,1,1
219,58ccfada8460040001e1ec4f_thisExp_2024-06-24_13h51.26.094.csv,0.0,20,images/toothbrush.png,2,1,1,0,1,-1.007583990320546,1,1,3,0,left,47,1,1,1
220,58ccfada8460040001e1ec4f_thisExp_2024-06-24_13h51.26.094.csv,-0.9322033898305084,1,images/car.png,3,1,1,1,1,-1.995100393246085,0,0,3,0,left,47,1,1,1
221,58ccfada8460040001e1ec4f_thisExp_2024-06-24_13h51.26.094.csv,-0.8983050847457628,2,images/car.png,3,1,1,1,1,0.2823931105181702,0,0,3,0,left,47,1,1,1
222,58ccfada8460040001e1ec4f_thisExp_2024-06-24_13h51.26.094.csv,-0.864406779661017,3,images/car.png,3,1,1,1,1,-0.21716147963666235,0,0,3,0,left,47,1,1,1
223,58ccfada8460040001e1ec4f_thisExp_2024-06-24_13h51.26.094.csv,-0.847457627118644,4,images/car.png,3,1,1,0,1,-0.015926150550259255,0,0,3,0,left,47,1,1,1
224,58ccfada8460040001e1ec4f_thisExp_2024-06-24_13h51.26.094.csv,-0.8305084745762712,5,images/car.png,3,1,1,0,1,-1.1077539465853932,0,0,3,0,left,47,1,1,1
225,58ccfada8460040001e1ec4f_thisExp_2024-06-24_13h51.26.094.csv,-0.7796610169491526,6,images/car.png,3,1,1,1,1,-0.7987299431350104,0,1,3,0,left,47,1,1,1
226,58ccfada8460040001e1ec4f_thisExp_2024-06-24_13h51.26.094.csv,-0.711864406779661,7,images/car.png,3,1,1,1,1,-1.406905315024015,0,1,3,0,left,47,1,1,1
227,58ccfada8460040001e1ec4f_thisExp_2024-06-24_13h51.26.094.csv,-0.6610169491525424,8,images/car.png,3,1,1,1,1,-0.46155938246307265,0,1,3,0,left,47,1,1,1
228,58ccfada8460040001e1ec4f_thisExp_2024-06-24_13h51.26.094.csv,-0.559322033898305,9,images/car.png,3,1,1,1,1,-1.1927032120677052,0,1,3,0,left,47,1,1,1
229,58ccfada8460040001e1ec4f_thisExp_2024-06-24_13h51.26.094.csv,-0.5084745762711864,10,images/car.png,3,1,1,1,1,-1.6461018968056917,0,0,3,0,left,47,1,1,1
230,58ccfada8460040001e1ec4f_thisExp_2024-06-24_13h51.26.094.csv,-0.4915254237288136,11,images/car.png,3,1,1,0,1,-1.4610179073158271,0,0,3,0,left,47,1,1,1
231,58ccfada8460040001e1ec4f_thisExp_2024-06-24_13h51.26.094.csv,-0.4576271186440678,12,images/car.png,3,1,1,1,1,-2.0249533563957662,0,1,3,0,left,47,1,1,1
232,58ccfada8460040001e1ec4f_thisExp_2024-06-24_13h51.26.094.csv,-0.423728813559322,13,images/car.png,3,1,1,1,1,-1.932401799030521,0,1,3,0,left,47,1,1,1
233,58ccfada8460040001e1ec4f_thisExp_2024-06-24_13h51.26.094.csv,-0.4067796610169492,14,images/car.png,3,1,1,0,1,-2.0272286702329017,0,1,3,0,left,47,1,1,1
234,58ccfada8460040001e1ec4f_thisExp_2024-06-24_13h51.26.094.csv,-0.3389830508474576,15,images/car.png,3,1,1,1,1,-2.1777161109481766,0,1,3,0,left,47,1,1,1
235,58ccfada8460040001e1ec4f_thisExp_2024-06-24_13h51.26.094.csv,-0.3220338983050847,16,images/car.png,3,1,1,0,1,-2.077842820316139,0,1,3,0,left,47,1,1,1
236,58ccfada8460040001e1ec4f_thisExp_2024-06-24_13h51.26.094.csv,-0.3050847457627119,17,images/car.png,3,1,1,0,1,-1.606941032235513,0,1,3,0,left,47,1,1,1
237,58ccfada8460040001e1ec4f_thisExp_2024-06-24_13h51.26.094.csv,-0.22033898305084745,18,images/car.png,3,1,1,1,1,-1.9928969402796501,0,1,3,0,left,47,1,1,1
238,58ccfada8460040001e1ec4f_thisExp_2024-06-24_13h51.26.094.csv,-0.01694915254237288,19,images/car.png,3,1,1,1,1,-1.5837701656855225,0,1,3,0,left,47,1,1,1
239,58ccfada8460040001e1ec4f_thisExp_2024-06-24_13h51.26.094.csv,0.0,20,images/car.png,3,1,1,0,1,-1.3866944411412303,0,1,3,0,left,47,1,1,1
240,59142b45ef024b0001c54c33_thisExp_2024-06-24_19h50.07.359.csv,-0.9830508474576272,1,start,1,1,0,1,1,2.840539384148289,1,0,3,1,right,27,1,1,0
241,59142b45ef024b0001c54c33_thisExp_2024-06-24_19h50.07.359.csv,-0.9661016949152542,2,start,1,1,1,0,1,3.4731148611996305,1,1,3,1,right,27,1,1,1
242,59142b45ef024b0001c54c33_thisExp_2024-06-24_19h50.07.359.csv,-0.8813559322033898,3,start,1,1,1,1,1,3.1025667024678176,1,1,3,1,right,27,1,1,1
243,59142b45ef024b0001c54c33_thisExp_2024-06-24_19h50.07.359.csv,-0.7966101694915254,4,start,1,1,1,1,1,2.1257285756311495,1,1,3,1,right,27,1,1,1
244,59142b45ef024b0001c54c33_thisExp_2024-06-24_19h50.07.359.csv,-0.7796610169491526,5,start,1,1,1,0,1,2.36968283652654,1,1,3,1,right,27,1,1,1
245,59142b45ef024b0001c54c33_thisExp_2024-06-24_19h50.07.359.csv,-0.6101694915254238,6,start,1,1,1,1,1,1.456752824768452,1,1,3,1,right,27,1,1,1
246,59142b45ef024b0001c54c33_thisExp_2024-06-24_19h50.07.359.csv,-0.5932203389830508,7,start,1,1,1,0,1,1.3286652482832542,1,1,3,1,right,27,1,1,1
247,59142b45ef024b0001c54c33_thisExp_2024-06-24_19h50.07.359.csv,-0.576271186440678,8,start,1,1,1,0,1,1.341819871018061,1,1,3,1,right,27,1,1,1
248,59142b45ef024b0001c54c33_thisExp_2024-06-24_19h50.07.359.csv,-0.5423728813559322,9,start,1,1,1,1,1,0.863733481135479,1,1,3,1,right,27,1,1,1
249,59142b45ef024b0001c54c33_thisExp_2024-06-24_19h50.07.359.csv,-0.5084745762711864,10,start,1,1,1,1,1,0.9218751101680556,1,1,3,1,right,27,1,1,1
250,59142b45ef024b0001c54c33_thisExp_2024-06-24_19h50.07.359.csv,-0.4915254237288136,11,start,1,1,1,0,1,0.5916680116100914,1,1,3,1,right,27,1,1,1
251,59142b45ef024b0001c54c33_thisExp_2024-06-24_19h50.07.359.csv,-0.3898305084745763,12,start,1,1,1,1,1,0.9932517730102834,1,1,3,1,right,27,1,1,1
252,59142b45ef024b0001c54c33_thisExp_2024-06-24_19h50.07.359.csv,-0.3559322033898305,13,start,1,1,1,1,1,0.8973117652763521,1,1,3,1,right,27,1,1,1
253,59142b45ef024b0001c54c33_thisExp_2024-06-24_19h50.07.359.csv,-0.23728813559322035,14,start,1,1,1,1,1,0.9809542451998772,1,1,3,1,right,27,1,1,1
254,59142b45ef024b0001c54c33_thisExp_2024-06-24_19h50.07.359.csv,-0.22033898305084745,15,start,1,1,1,0,1,0.5692831933375593,1,1,3,1,right,27,1,1,1
255,59142b45ef024b0001c54c33_thisExp_2024-06-24_19h50.07.359.csv,-0.13559322033898305,16,start,1,1,1,1,1,1.2864740258376797,1,1,3,1,right,27,1,1,1
256,59142b45ef024b0001c54c33_thisExp_2024-06-24_19h50.07.359.csv,-0.11864406779661017,17,start,1,1,1,0,1,0.5199835615507563,1,1,3,1,right,27,1,1,1
257,59142b45ef024b0001c54c33_thisExp_2024-06-24_19h50.07.359.csv,-0.0847457627118644,18,start,1,1,1,1,1,0.636576829071551,1,1,3,1,right,27,1,1,1
258,59142b45ef024b0001c54c33_thisExp_2024-06-24_19h50.07.359.csv,-0.01694915254237288,19,start,1,1,1,1,1,0.532978428407124,1,1,3,1,right,27,1,1,1
259,59142b45ef024b0001c54c33_thisExp_2024-06-24_19h50.07.359.csv,0.0,20,start,1,1,1,0,1,0.4995624314872799,1,1,3,1,right,27,1,1,1
260,59142b45ef024b0001c54c33_thisExp_2024-06-24_19h50.07.359.csv,-0.9830508474576272,1,images/toothbrush.png,2,1,1,1,1,1.6333497324804134,1,0,3,0,left,27,1,1,1
261,59142b45ef024b0001c54c33_thisExp_2024-06-24_19h50.07.359.csv,-0.9661016949152542,2,images/toothbrush.png,2,1,1,0,1,0.02273948696948934,1,1,3,0,left,27,1,1,1
262,59142b45ef024b0001c54c33_thisExp_2024-06-24_19h50.07.359.csv,-0.8813559322033898,3,images/toothbrush.png,2,1,1,1,1,1.6494275606502589,1,1,3,0,left,27,1,1,1
263,59142b45ef024b0001c54c33_thisExp_2024-06-24_19h50.07.359.csv,-0.7966101694915254,4,images/toothbrush.png,2,1,1,1,1,0.09712671073072282,1,1,3,0,left,27,1,1,1
264,59142b45ef024b0001c54c33_thisExp_2024-06-24_19h50.07.359.csv,-0.7796610169491526,5,images/toothbrush.png,2,1,1,0,1,0.05732506661926935,1,1,3,0,left,27,1,1,1
265,59142b45ef024b0001c54c33_thisExp_2024-06-24_19h50.07.359.csv,-0.6101694915254238,6,images/toothbrush.png,2,1,1,1,1,0.3407487933884731,1,1,3,0,left,27,1,1,1
266,59142b45ef024b0001c54c33_thisExp_2024-06-24_19h50.07.359.csv,-0.5932203389830508,7,images/toothbrush.png,2,1,1,0,1,-0.5361434317502807,1,1,3,0,left,27,1,1,1
267,59142b45ef024b0001c54c33_thisExp_2024-06-24_19h50.07.359.csv,-0.576271186440678,8,images/toothbrush.png,2,1,1,0,1,-0.7657178733947807,1,1,3,0,left,27,1,1,1
268,59142b45ef024b0001c54c33_thisExp_2024-06-24_19h50.07.359.csv,-0.5423728813559322,9,images/toothbrush.png,2,1,1,1,1,-0.47160491061270937,1,1,3,0,left,27,1,1,1
269,59142b45ef024b0001c54c33_thisExp_2024-06-24_19h50.07.359.csv,-0.5084745762711864,10,images/toothbrush.png,2,1,1,1,1,-0.6254885320861304,1,1,3,0,left,27,1,1,1
270,59142b45ef024b0001c54c33_thisExp_2024-06-24_19h50.07.359.csv,-0.4915254237288136,11,images/toothbrush.png,2,1,1,0,1,-0.49265831981054176,1,1,3,0,left,27,1,1,1
271,59142b45ef024b0001c54c33_thisExp_2024-06-24_19h50.07.359.csv,-0.3898305084745763,12,images/toothbrush.png,2,1,1,1,1,-0.5851900390548529,1,1,3,0,left,27,1,1,1
272,59142b45ef024b0001c54c33_thisExp_2024-06-24_19h50.07.359.csv,-0.3559322033898305,13,images/toothbrush.png,2,1,1,1,1,-0.9942522733438669,1,1,3,0,left,27,1,1,1
273,59142b45ef024b0001c54c33_thisExp_2024-06-24_19h50.07.359.csv,-0.23728813559322035,14,images/toothbrush.png,2,1,1,1,1,0.2053868297249507,1,1,3,0,left,27,1,1,1
274,59142b45ef024b0001c54c33_thisExp_2024-06-24_19h50.07.359.csv,-0.22033898305084745,15,images/toothbrush.png,2,1,1,0,1,-0.8509712657535126,1,1,3,0,left,27,1,1,1
275,59142b45ef024b0001c54c33_thisExp_2024-06-24_19h50.07.359.csv,-0.13559322033898305,16,images/toothbrush.png,2,1,1,1,1,-0.9213032736976993,1,1,3,0,left,27,1,1,1
276,59142b45ef024b0001c54c33_thisExp_2024-06-24_19h50.07.359.csv,-0.11864406779661017,17,images/toothbrush.png,2,1,1,0,1,-0.9187938620922735,1,1,3,0,left,27,1,1,1
277,59142b45ef024b0001c54c33_thisExp_2024-06-24_19h50.07.359.csv,-0.0847457627118644,18,images/toothbrush.png,2,1,1,1,1,-1.0412872220488403,1,1,3,0,left,27,1,1,1
278,59142b45ef024b0001c54c33_thisExp_2024-06-24_19h50.07.359.csv,-0.01694915254237288,19,images/toothbrush.png,2,1,1,1,1,-1.0412872220488403,1,1,3,0,left,27,1,1,1
279,59142b45ef024b0001c54c33_thisExp_2024-06-24_19h50.07.359.csv,0.0,20,images/toothbrush.png,2,1,1,0,1,-1.2946271725940668,1,1,3,0,left,27,1,1,1
280,59142b45ef024b0001c54c33_thisExp_2024-06-24_19h50.07.359.csv,-0.9830508474576272,1,images/car.png,3,1,1,1,1,-0.6106459590482015,0,0,3,0,left,27,1,1,1
281,59142b45ef024b0001c54c33_thisExp_2024-06-24_19h50.07.359.csv,-0.9661016949152542,2,images/car.png,3,1,1,0,1,-0.26266430947649305,0,0,3,0,left,27,1,1,1
282,59142b45ef024b0001c54c33_thisExp_2024-06-24_19h50.07.359.csv,-0.8813559322033898,3,images/car.png,3,1,1,1,1,-0.6931471805599453,0,1,3,0,left,27,1,1,1
283,59142b45ef024b0001c54c33_thisExp_2024-06-24_19h50.07.359.csv,-0.7966101694915254,4,images/car.png,3,1,1,1,1,0.6830968447064438,0,1,3,0,left,27,1,1,1
284,59142b45ef024b0001c54c33_thisExp_2024-06-24_19h50.07.359.csv,-0.7796610169491526,5,images/car.png,3,1,1,0,1,-0.623621117911335,0,1,3,0,left,27,1,1,1
285,59142b45ef024b0001c54c33_thisExp_2024-06-24_19h50.07.359.csv,-0.6101694915254238,6,images/car.png,3,1,1,1,1,-0.6911491778972723,0,0,3,0,left,27,1,1,1
286,59142b45ef024b0001c54c33_thisExp_2024-06-24_19h50.07.359.csv,-0.5932203389830508,7,images/car.png,3,1,1,0,1,-0.770028224895903,0,0,3,0,left,27,1,1,1
287,59142b45ef024b0001c54c33_thisExp_2024-06-24_19h50.07.359.csv,-0.576271186440678,8,images/car.png,3,1,1,0,1,-0.8486320834003402,0,0,3,0,left,27,1,1,1
288,59142b45ef024b0001c54c33_thisExp_2024-06-24_19h50.07.359.csv,-0.5423728813559322,9,images/car.png,3,1,1,1,1,-0.9467499393588635,0,1,3,0,left,27,1,1,1
289,59142b45ef024b0001c54c33_thisExp_2024-06-24_19h50.07.359.csv,-0.5084745762711864,10,images/car.png,3,1,1,1,1,-1.04412410338404,0,1,3,0,left,27,1,1,1
290,59142b45ef024b0001c54c33_thisExp_2024-06-24_19h50.07.359.csv,-0.4915254237288136,11,images/car.png,3,1,1,0,1,-0.807436326962073,0,1,3,0,left,27,1,1,1
291,59142b45ef024b0001c54c33_thisExp_2024-06-24_19h50.07.359.csv,-0.3898305084745763,12,images/car.png,3,1,1,1,1,-1.3664917338237108,0,1,3,0,left,27,1,1,1
292,59142b45ef024b0001c54c33_thisExp_2024-06-24_19h50.07.359.csv,-0.3559322033898305,13,images/car.png,3,1,1,1,1,-1.287354413264987,0,1,3,0,left,27,1,1,1
293,59142b45ef024b0001c54c33_thisExp_2024-06-24_19h50.07.359.csv,-0.23728813559322035,14,images/car.png,3,1,1,1,1,-0.9996723408132061,0,0,3,0,left,27,1,1,1
294,59142b45ef024b0001c54c33_thisExp_2024-06-24_19h50.07.359.csv,-0.22033898305084745,15,images/car.png,3,1,1,0,1,-1.152013065395225,0,0,3,0,left,27,1,1,1
295,59142b45ef024b0001c54c33_thisExp_2024-06-24_19h50.07.359.csv,-0.13559322033898305,16,images/car.png,3,1,1,1,1,-1.1907275775759154,0,0,3,0,left,27,1,1,1
296,59142b45ef024b0001c54c33_thisExp_2024-06-24_19h50.07.359.csv,-0.11864406779661017,17,images/car.png,3,1,1,0,1,-1.1116975282167652,0,0,3,0,left,27,1,1,1
297,59142b45ef024b0001c54c33_thisExp_2024-06-24_19h50.07.359.csv,-0.0847457627118644,18,images/car.png,3,1,1,1,1,-1.3394107752210402,0,0,3,0,left,27,1,1,1
298,59142b45ef024b0001c54c33_thisExp_2024-06-24_19h50.07.359.csv,-0.01694915254237288,19,images/car.png,3,1,1,1,1,-1.2552660987134867,0,1,3,0,left,27,1,1,1
299,59142b45ef024b0001c54c33_thisExp_2024-06-24_19h50.07.359.csv,0.0,20,images/car.png,3,1,1,0,1,-1.7037485919053417,0,1,3,0,left,27,1,1,1
300,59a40f8f514a2200017e69dc_thisExp_2024-06-24_21h00.11.900.csv,-0.9491525423728814,1,start,1,1,0,1,1,3.4408314709022294,1,0,3,1,right,46,1,1,0
301,59a40f8f514a2200017e69dc_thisExp_2024-06-24_21h00.11.900.csv,-0.864406779661017,2,start,1,1,1,1,1,2.8169524374562998,1,1,3,1,right,46,1,1,1
302,59a40f8f514a2200017e69dc_thisExp_2024-06-24_21h00.11.900.csv,-0.7966101694915254,3,start,1,1,1,1,1,2.996252138400842,1,1,3,1,right,46,1,1,1
303,59a40f8f514a2200017e69dc_thisExp_2024-06-24_21h00.11.900.csv,-0.7288135593220338,4,start,1,1,1,1,1,2.2648209185730286,1,1,3,1,right,46,1,1,1
304,59a40f8f514a2200017e69dc_thisExp_2024-06-24_21h00.11.900.csv,-0.711864406779661,5,start,1,1,1,0,1,2.243726410987639,1,1,3,1,right,46,1,1,1
305,59a40f8f514a2200017e69dc_thisExp_2024-06-24_21h00.11.900.csv,-0.6779661016949152,6,start,1,1,1,1,1,0.7596369218287783,1,1,3,1,right,46,1,1,1
306,59a40f8f514a2200017e69dc_thisExp_2024-06-24_21h00.11.900.csv,-0.6610169491525424,7,start,1,1,1,0,1,0.7280315824134472,1,1,3,1,right,46,1,1,1
307,59a40f8f514a2200017e69dc_thisExp_2024-06-24_21h00.11.900.csv,-0.6440677966101694,8,start,1,1,1,0,1,1.0374458534306223,1,1,3,1,right,46,1,1,1
308,59a40f8f514a2200017e69dc_thisExp_2024-06-24_21h00.11.900.csv,-0.4915254237288136,9,start,1,1,1,1,1,0.678338064906237,1,1,3,1,right,46,1,1,1
309,59a40f8f514a2200017e69dc_thisExp_2024-06-24_21h00.11.900.csv,-0.4745762711864407,10,start,1,1,1,0,1,0.5526199454229686,1,1,3,1,right,46,1,1,1
310,59a40f8f514a2200017e69dc_thisExp_2024-06-24_21h00.11.900.csv,-0.4576271186440678,11,start,1,1,1,0,1,0.3769284499659755,1,1,3,1,right,46,1,1,1
311,59a40f8f514a2200017e69dc_thisExp_2024-06-24_21h00.11.900.csv,-0.4067796610169492,12,start,1,1,1,1,1,1.2401118509418092,1,1,3,1,right,46,1,1,1
312,59a40f8f514a2200017e69dc_thisExp_2024-06-24_21h00.11.900.csv,-0.3898305084745763,13,start,1,1,1,0,1,2.740272120763238,1,1,3,1,right,46,1,1,1
313,59a40f8f514a2200017e69dc_thisExp_2024-06-24_21h00.11.900.csv,-0.3728813559322034,14,start,1,1,1,0,1,1.2207119203302124,1,1,3,1,right,46,1,1,1
314,59a40f8f514a2200017e69dc_thisExp_2024-06-24_21h00.11.900.csv,-0.23728813559322035,15,start,1,1,1,1,1,0.5203996462002639,1,1,3,1,right,46,1,1,1
315,59a40f8f514a2200017e69dc_thisExp_2024-06-24_21h00.11.900.csv,-0.22033898305084745,16,start,1,1,1,0,1,-0.201749054460053,1,1,3,1,right,46,1,1,1
316,59a40f8f514a2200017e69dc_thisExp_2024-06-24_21h00.11.900.csv,-0.1864406779661017,17,start,1,1,1,1,1,0.0037927982386962624,1,1,3,1,right,46,1,1,1
317,59a40f8f514a2200017e69dc_thisExp_2024-06-24_21h00.11.900.csv,-0.15254237288135594,18,start,1,1,1,1,1,0.39028378611250036,1,1,3,1,right,46,1,1,1
318,59a40f8f514a2200017e69dc_thisExp_2024-06-24_21h00.11.900.csv,-0.1016949152542373,19,start,1,1,1,1,1,0.30313702700664136,1,1,3,1,right,46,1,1,1
319,59a40f8f514a2200017e69dc_thisExp_2024-06-24_21h00.11.900.csv,-0.01694915254237288,20,start,1,1,1,1,1,-0.07095908894049391,1,1,3,1,right,46,1,1,1
320,59a40f8f514a2200017e69dc_thisExp_2024-06-24_21h00.11.900.csv,-0.9491525423728814,1,images/toothbrush.png,2,1,1,1,1,2.1592573005255122,1,0,3,0,left,46,1,1,1
321,59a40f8f514a2200017e69dc_thisExp_2024-06-24_21h00.11.900.csv,-0.864406779661017,2,images/toothbrush.png,2,1,1,1,1,1.565088871859909,1,1,3,0,left,46,1,1,1
322,59a40f8f514a2200017e69dc_thisExp_2024-06-24_21h00.11.900.csv,-0.7966101694915254,3,images/toothbrush.png,2,1,1,1,1,1.5843867355672412,1,1,3,0,left,46,1,1,1
323,59a40f8f514a2200017e69dc_thisExp_2024-06-24_21h00.11.900.csv,-0.7288135593220338,4,images/toothbrush.png,2,1,1,1,1,1.2285580940842478,1,1,3,0,left,46,1,1,1
324,59a40f8f514a2200017e69dc_thisExp_2024-06-24_21h00.11.900.csv,-0.711864406779661,5,images/toothbrush.png,2,1,1,0,1,1.136678489474566,1,1,3,0,left,46,1,1,1
325,59a40f8f514a2200017e69dc_thisExp_2024-06-24_21h00.11.900.csv,-0.6779661016949152,6,images/toothbrush.png,2,1,1,1,1,-0.17888746005967235,1,1,3,0,left,46,1,1,1
326,59a40f8f514a2200017e69dc_thisExp_2024-06-24_21h00.11.900.csv,-0.6610169491525424,7,images/toothbrush.png,2,1,1,0,1,-0.3293377477206134,1,1,3,0,left,46,1,1,1
327,59a40f8f514a2200017e69dc_thisExp_2024-06-24_21h00.11.900.csv,-0.6440677966101694,8,images/toothbrush.png,2,1,1,0,1,-0.1456039738587918,1,1,3,0,left,46,1,1,1
328,59a40f8f514a2200017e69dc_thisExp_2024-06-24_21h00.11.900.csv,-0.4915254237288136,9,images/toothbrush.png,2,1,1,1,1,0.3761736034727651,1,1,3,0,left,46,1,1,1
329,59a40f8f514a2200017e69dc_thisExp_2024-06-24_21h00.11.900.csv,-0.4745762711864407,10,images/toothbrush.png,2,1,1,0,1,-0.2789205667832081,1,1,3,0,left,46,1,1,1
330,59a40f8f514a2200017e69dc_thisExp_2024-06-24_21h00.11.900.csv,-0.4576271186440678,11,images/toothbrush.png,2,1,1,0,1,0.011236631925987768,1,1,3,0,left,46,1,1,1
331,59a40f8f514a2200017e69dc_thisExp_2024-06-24_21h00.11.900.csv,-0.4067796610169492,12,images/toothbrush.png,2,1,1,1,1,-0.0549843083327595,1,1,3,0,left,46,1,1,1
332,59a40f8f514a2200017e69dc_thisExp_2024-06-24_21h00.11.900.csv,-0.3898305084745763,13,images/toothbrush.png,2,1,1,0,1,0.5214094173056356,1,1,3,0,left,46,1,1,1
333,59a40f8f514a2200017e69dc_thisExp_2024-06-24_21h00.11.900.csv,-0.3728813559322034,14,images/toothbrush.png,2,1,1,0,1,0.4725005094443228,1,1,3,0,left,46,1,1,1
334,59a40f8f514a2200017e69dc_thisExp_2024-06-24_21h00.11.900.csv,-0.23728813559322035,15,images/toothbrush.png,2,1,1,1,1,-0.013490590182499144,1,1,3,0,left,46,1,1,1
335,59a40f8f514a2200017e69dc_thisExp_2024-06-24_21h00.11.900.csv,-0.22033898305084745,16,images/toothbrush.png,2,1,1,0,1,-0.483534763530087,1,1,3,0,left,46,1,1,1
336,59a40f8f514a2200017e69dc_thisExp_2024-06-24_21h00.11.900.csv,-0.1864406779661017,17,images/toothbrush.png,2,1,1,1,1,-0.4066157698655603,1,1,3,0,left,46,1,1,1
337,59a40f8f514a2200017e69dc_thisExp_2024-06-24_21h00.11.900.csv,-0.15254237288135594,18,images/toothbrush.png,2,1,1,1,1,-0.6316758584718444,1,1,3,0,left,46,1,1,1
338,59a40f8f514a2200017e69dc_thisExp_2024-06-24_21h00.11.900.csv,-0.1016949152542373,19,images/toothbrush.png,2,1,1,1,1,0.9118408458005243,1,1,3,0,left,46,1,1,1
339,59a40f8f514a2200017e69dc_thisExp_2024-06-24_21h00.11.900.csv,-0.01694915254237288,20,images/toothbrush.png,2,1,1,1,1,-0.2195251057914988,1,1,3,0,left,46,1,1,1
340,59a40f8f514a2200017e69dc_thisExp_2024-06-24_21h00.11.900.csv,-0.9491525423728814,1,images/car.png,3,1,1,1,1,0.9338555630536269,0,0,3,0,left,46,1,1,1
341,59a40f8f514a2200017e69dc_thisExp_2024-06-24_21h00.11.900.csv,-0.864406779661017,2,images/car.png,3,1,1,1,1,0.6701855689225983,0,1,3,0,left,46,1,1,1
342,59a40f8f514a2200017e69dc_thisExp_2024-06-24_21h00.11.900.csv,-0.7966101694915254,3,images/car.png,3,1,1,1,1,0.30476040398653215,0,0,3,0,left,46,1,1,1
343,59a40f8f514a2200017e69dc_thisExp_2024-06-24_21h00.11.900.csv,-0.7288135593220338,4,images/car.png,3,1,1,1,1,-0.9744496460476871,0,1,3,0,left,46,1,1,1
344,59a40f8f514a2200017e69dc_thisExp_2024-06-24_21h00.11.900.csv,-0.711864406779661,5,images/car.png,3,1,1,0,1,-0.4538153690492111,0,1,3,0,left,46,1,1,1
345,59a40f8f514a2200017e69dc_thisExp_2024-06-24_21h00.11.900.csv,-0.6779661016949152,6,images/car.png,3,1,1,1,1,-0.36183107108810303,0,0,3,0,left,46,1,1,1
346,59a40f8f514a2200017e69dc_thisExp_2024-06-24_21h00.11.900.csv,-0.6610169491525424,7,images/car.png,3,1,1,0,1,-0.8942846516115405,0,0,3,0,left,46,1,1,1
347,59a40f8f514a2200017e69dc_thisExp_2024-06-24_21h00.11.900.csv,-0.6440677966101694,8,images/car.png,3,1,1,0,1,-0.7225759912507574,0,0,3,0,left,46,1,1,1
348,59a40f8f514a2200017e69dc_thisExp_2024-06-24_21h00.11.900.csv,-0.4915254237288136,9,images/car.png,3,1,1,1,1,-0.716211120158497,0,0,3,0,left,46,1,1,1
349,59a40f8f514a2200017e69dc_thisExp_2024-06-24_21h00.11.900.csv,-0.4745762711864407,10,images/car.png,3,1,1,0,1,-0.9565920286476808,0,0,3,0,left,46,1,1,1
350,59a40f8f514a2200017e69dc_thisExp_2024-06-24_21h00.11.900.csv,-0.4576271186440678,11,images/car.png,3,1,1,0,1,-0.8317198304238852,0,0,3,0,left,46,1,1,1
351,59a40f8f514a2200017e69dc_thisExp_2024-06-24_21h00.11.900.csv,-0.4067796610169492,12,images/car.png,3,1,1,1,1,-0.8792358239231439,0,1,3,0,left,46,1,1,1
352,59a40f8f514a2200017e69dc_thisExp_2024-06-24_21h00.11.900.csv,-0.3898305084745763,13,images/car.png,3,1,1,0,1,-1.093027910374209,0,1,3,0,left,46,1,1,1
353,59a40f8f514a2200017e69dc_thisExp_2024-06-24_21h00.11.900.csv,-0.3728813559322034,14,images/car.png,3,1,1,0,1,-0.10469407111466583,0,1,3,0,left,46,1,1,1
354,59a40f8f514a2200017e69dc_thisExp_2024-06-24_21h00.11.900.csv,-0.23728813559322035,15,images/car.png,3,1,1,1,1,-1.0498221244986778,0,1,3,0,left,46,1,1,1
355,59a40f8f514a2200017e69dc_thisExp_2024-06-24_21h00.11.900.csv,-0.22033898305084745,16,images/car.png,3,1,1,0,1,-0.4790040114430347,0,1,3,0,left,46,1,1,1
356,59a40f8f514a2200017e69dc_thisExp_2024-06-24_21h00.11.900.csv,-0.1864406779661017,17,images/car.png,3,1,1,1,1,-0.9291227106895333,0,0,3,0,left,46,1,1,1
357,59a40f8f514a2200017e69dc_thisExp_2024-06-24_21h00.11.900.csv,-0.15254237288135594,18,images/car.png,3,1,1,1,1,-0.8237115505810618,0,0,3,0,left,46,1,1,1
358,59a40f8f514a2200017e69dc_thisExp_2024-06-24_21h00.11.900.csv,-0.1016949152542373,19,images/car.png,3,1,1,1,1,-0.8193909071341958,0,0,3,0,left,46,1,1,1
359,59a40f8f514a2200017e69dc_thisExp_2024-06-24_21h00.11.900.csv,-0.01694915254237288,20,images/car.png,3,1,1,1,1,-0.8069879969837049,0,1,3,0,left,46,1,1,1
360,59d3bc2147f4e80001a6c559_thisExp_2024-06-24_19h51.13.411.csv,-1.0,1,start,1,0,0,1,1,3.786890528670594,1,0,3,1,right,77,0,1,0
361,59d3bc2147f4e80001a6c559_thisExp_2024-06-24_19h51.13.411.csv,-0.8813559322033898,2,start,1,1,0,1,1,3.6864364724627965,1,1,3,1,right,77,1,1,0
362,59d3bc2147f4e80001a6c559_thisExp_2024-06-24_19h51.13.411.csv,-0.847457627118644,3,start,1,1,1,1,1,2.3876520808837696,1,1,3,1,right,77,1,1,1
363,59d3bc2147f4e80001a6c559_thisExp_2024-06-24_19h51.13.411.csv,-0.6271186440677966,4,start,1,1,1,1,1,2.0899239091942183,1,1,3,1,right,77,1,1,1
364,59d3bc2147f4e80001a6c559_thisExp_2024-06-24_19h51.13.411.csv,-0.576271186440678,5,start,1,1,1,1,1,3.2476381935358525,1,1,3,1,right,77,1,1,1
365,59d3bc2147f4e80001a6c559_thisExp_2024-06-24_19h51.13.411.csv,-0.5254237288135594,6,start,1,1,1,1,1,0.6919464599834264,1,1,3,1,right,77,1,1,1
366,59d3bc2147f4e80001a6c559_thisExp_2024-06-24_19h51.13.411.csv,-0.4915254237288136,7,start,1,1,1,1,1,0.513541931260219,1,1,3,1,right,77,1,1,1
367,59d3bc2147f4e80001a6c559_thisExp_2024-06-24_19h51.13.411.csv,-0.4406779661016949,8,start,1,1,1,1,1,0.4476302002688432,1,1,3,1,right,77,1,1,1
368,59d3bc2147f4e80001a6c559_thisExp_2024-06-24_19h51.13.411.csv,-0.3898305084745763,9,start,1,1,1,1,1,0.3039490449156529,1,1,3,1,right,77,1,1,1
369,59d3bc2147f4e80001a6c559_thisExp_2024-06-24_19h51.13.411.csv,-0.3728813559322034,10,start,1,1,1,0,1,2.0217064910285973,1,1,3,1,right,77,1,1,1
370,59d3bc2147f4e80001a6c559_thisExp_2024-06-24_19h51.13.411.csv,-0.3389830508474576,11,start,1,1,1,1,1,2.0946995440688165,1,1,3,1,right,77,1,1,1
371,59d3bc2147f4e80001a6c559_thisExp_2024-06-24_19h51.13.411.csv,-0.3220338983050847,12,start,1,1,1,0,1,0.2369675579072796,1,1,3,1,right,77,1,1,1
372,59d3bc2147f4e80001a6c559_thisExp_2024-06-24_19h51.13.411.csv,-0.3050847457627119,13,start,1,1,1,0,1,1.5292035197234943,1,1,3,1,right,77,1,1,1
373,59d3bc2147f4e80001a6c559_thisExp_2024-06-24_19h51.13.411.csv,-0.2033898305084746,14,start,1,0,1,1,1,0.2096124170298583,1,0,3,1,left,77,0,1,1
374,59d3bc2147f4e80001a6c559_thisExp_2024-06-24_19h51.13.411.csv,-0.1864406779661017,15,start,1,1,0,0,1,0.5496231704739029,1,0,3,1,right,77,1,1,0
375,59d3bc2147f4e80001a6c559_thisExp_2024-06-24_19h51.13.411.csv,-0.1694915254237288,16,start,1,1,1,0,1,0.1209779265529027,1,1,3,1,right,77,1,1,1
376,59d3bc2147f4e80001a6c559_thisExp_2024-06-24_19h51.13.411.csv,-0.15254237288135594,17,start,1,1,1,0,1,-0.11867092971767863,1,1,3,1,right,77,1,1,1
377,59d3bc2147f4e80001a6c559_thisExp_2024-06-24_19h51.13.411.csv,-0.05084745762711865,18,start,1,1,1,1,1,0.6974877466583655,1,1,3,1,right,77,1,1,1
378,59d3bc2147f4e80001a6c559_thisExp_2024-06-24_19h51.13.411.csv,-0.03389830508474576,19,start,1,1,1,0,1,1.1447958840837023,1,1,3,1,right,77,1,1,1
379,59d3bc2147f4e80001a6c559_thisExp_2024-06-24_19h51.13.411.csv,-0.01694915254237288,20,start,1,1,1,0,1,0.575995195749087,1,1,3,1,right,77,1,1,1
380,59d3bc2147f4e80001a6c559_thisExp_2024-06-24_19h51.13.411.csv,-1.0,1,images/toothbrush.png,2,0,1,1,1,2.161436189232463,1,0,3,0,space,77,0,0,1
381,59d3bc2147f4e80001a6c559_thisExp_2024-06-24_19h51.13.411.csv,-0.8813559322033898,2,images/toothbrush.png,2,1,0,1,1,1.6582280766035324,1,0,3,0,left,77,1,1,0
382,59d3bc2147f4e80001a6c559_thisExp_2024-06-24_19h51.13.411.csv,-0.847457627118644,3,images/toothbrush.png,2,1,1,1,1,0.5716572829722354,1,1,3,0,left,77,1,1,1
383,59d3bc2147f4e80001a6c559_thisExp_2024-06-24_19h51.13.411.csv,-0.6271186440677966,4,images/toothbrush.png,2,1,1,1,1,1.0821440959608024,1,1,3,0,left,77,1,1,1
384,59d3bc2147f4e80001a6c559_thisExp_2024-06-24_19h51.13.411.csv,-0.576271186440678,5,images/toothbrush.png,2,1,1,1,1,-0.5452445506364498,1,1,3,0,left,77,1,1,1
385,59d3bc2147f4e80001a6c559_thisExp_2024-06-24_19h51.13.411.csv,-0.5254237288135594,6,images/toothbrush.png,2,1,1,1,1,-0.053295297058223556,1,1,3,0,left,77,1,1,1
386,59d3bc2147f4e80001a6c559_thisExp_2024-06-24_19h51.13.411.csv,-0.4915254237288136,7,images/toothbrush.png,2,1,1,1,1,-0.6923475003893811,1,1,3,0,left,77,1,1,1
387,59d3bc2147f4e80001a6c559_thisExp_2024-06-24_19h51.13.411.csv,-0.4406779661016949,8,images/toothbrush.png,2,1,1,1,1,-0.8722738464573808,1,1,3,0,left,77,1,1,1
388,59d3bc2147f4e80001a6c559_thisExp_2024-06-24_19h51.13.411.csv,-0.3898305084745763,9,images/toothbrush.png,2,1,1,1,1,-1.0498221244986778,1,1,3,0,left,77,1,1,1
389,59d3bc2147f4e80001a6c559_thisExp_2024-06-24_19h51.13.411.csv,-0.3728813559322034,10,images/toothbrush.png,2,1,1,0,1,0.05798584919865335,1,1,3,0,left,77,1,1,1
390,59d3bc2147f4e80001a6c559_thisExp_2024-06-24_19h51.13.411.csv,-0.3389830508474576,11,images/toothbrush.png,2,1,1,1,1,-1.009777574967619,1,1,3,0,left,77,1,1,1
391,59d3bc2147f4e80001a6c559_thisExp_2024-06-24_19h51.13.411.csv,-0.3220338983050847,12,images/toothbrush.png,2,1,1,0,1,-0.9170410132648592,1,1,3,0,left,77,1,1,1
392,59d3bc2147f4e80001a6c559_thisExp_2024-06-24_19h51.13.411.csv,-0.3050847457627119,13,images/toothbrush.png,2,1,1,0,1,-0.8729918074790074,1,1,3,0,left,77,1,1,1
393,59d3bc2147f4e80001a6c559_thisExp_2024-06-24_19h51.13.411.csv,-0.2033898305084746,14,images/baby.png,2,0,1,1,1,1.6377726648613689,0,0,3,0,space,77,0,0,1
394,59d3bc2147f4e80001a6c559_thisExp_2024-06-24_19h51.13.411.csv,-0.1864406779661017,15,images/toothbrush.png,2,1,0,0,1,-0.622129693324665,1,1,3,0,left,77,1,1,0
395,59d3bc2147f4e80001a6c559_thisExp_2024-06-24_19h51.13.411.csv,-0.1694915254237288,16,images/toothbrush.png,2,1,1,0,1,-0.9747146520118722,1,1,3,0,left,77,1,1,1
396,59d3bc2147f4e80001a6c559_thisExp_2024-06-24_19h51.13.411.csv,-0.15254237288135594,17,images/toothbrush.png,2,1,1,0,1,-0.9681104806039514,1,1,3,0,left,77,1,1,1
397,59d3bc2147f4e80001a6c559_thisExp_2024-06-24_19h51.13.411.csv,-0.05084745762711865,18,images/toothbrush.png,2,1,1,1,1,-0.7119223358862793,1,1,3,0,left,77,1,1,1
398,59d3bc2147f4e80001a6c559_thisExp_2024-06-24_19h51.13.411.csv,-0.03389830508474576,19,images/toothbrush.png,2,1,1,0,1,-0.9498475154029978,1,1,3,0,left,77,1,1,1
399,59d3bc2147f4e80001a6c559_thisExp_2024-06-24_19h51.13.411.csv,-0.01694915254237288,20,images/toothbrush.png,2,1,1,0,1,-1.0572784251751326,1,1,3,0,left,77,1,1,1
400,59d3bc2147f4e80001a6c559_thisExp_2024-06-24_19h51.13.411.csv,-1.0,1,images/backpack.png,3,0,1,1,1,1.4368448797177917,0,0,3,0,space,77,0,0,1
401,59d3bc2147f4e80001a6c559_thisExp_2024-06-24_19h51.13.411.csv,-0.8813559322033898,2,images/car.png,3,1,0,1,1,0.059023340449460976,0,0,3,0,left,77,1,1,0
402,59d3bc2147f4e80001a6c559_thisExp_2024-06-24_19h51.13.411.csv,-0.847457627118644,3,images/car.png,3,1,1,1,1,-0.6329932577401982,0,0,3,0,left,77,1,1,1
403,59d3bc2147f4e80001a6c559_thisExp_2024-06-24_19h51.13.411.csv,-0.6271186440677966,4,images/car.png,3,1,1,1,1,-0.15105547491995588,0,0,3,0,left,77,1,1,1
404,59d3bc2147f4e80001a6c559_thisExp_2024-06-24_19h51.13.411.csv,-0.576271186440678,5,images/car.png,3,1,1,1,1,-0.02696018158278308,0,0,3,0,left,77,1,1,1
405,59d3bc2147f4e80001a6c559_thisExp_2024-06-24_19h51.13.411.csv,-0.5254237288135594,6,images/car.png,3,1,1,1,1,-1.0761660998382796,0,0,3,0,left,77,1,1,1
406,59d3bc2147f4e80001a6c559_thisExp_2024-06-24_19h51.13.411.csv,-0.4915254237288136,7,images/car.png,3,1,1,1,1,-1.165393322358461,0,1,3,0,left,77,1,1,1
407,59d3bc2147f4e80001a6c559_thisExp_2024-06-24_19h51.13.411.csv,-0.4406779661016949,8,images/car.png,3,1,1,1,1,-0.3102003838823833,0,0,3,0,left,77,1,1,1
408,59d3bc2147f4e80001a6c559_thisExp_2024-06-24_19h51.13.411.csv,-0.3898305084745763,9,images/car.png,3,1,1,1,1,-0.6018450221531594,0,0,3,0,left,77,1,1,1
409,59d3bc2147f4e80001a6c559_thisExp_2024-06-24_19h51.13.411.csv,-0.3728813559322034,10,images/car.png,3,1,1,0,1,-0.9228119488644206,0,0,3,0,left,77,1,1,1
410,59d3bc2147f4e80001a6c559_thisExp_2024-06-24_19h51.13.411.csv,-0.3389830508474576,11,images/car.png,3,1,1,1,1,-1.2510644118597865,0,0,3,0,left,77,1,1,1
411,59d3bc2147f4e80001a6c559_thisExp_2024-06-24_19h51.13.411.csv,-0.3220338983050847,12,images/car.png,3,1,1,0,1,-1.3827008256097604,0,0,3,0,left,77,1,1,1
412,59d3bc2147f4e80001a6c559_thisExp_2024-06-24_19h51.13.411.csv,-0.3050847457627119,13,images/car.png,3,1,1,0,1,-1.3060055298910878,0,0,3,0,left,77,1,1,1
413,59d3bc2147f4e80001a6c559_thisExp_2024-06-24_19h51.13.411.csv,-0.2033898305084746,14,images/bowtie.png,3,0,1,1,1,-0.11406495628797267,0,0,3,0,space,77,0,0,1
414,59d3bc2147f4e80001a6c559_thisExp_2024-06-24_19h51.13.411.csv,-0.1864406779661017,15,images/car.png,3,1,0,0,1,-0.4100757206658477,0,0,3,0,left,77,1,1,0
415,59d3bc2147f4e80001a6c559_thisExp_2024-06-24_19h51.13.411.csv,-0.1694915254237288,16,images/car.png,3,1,1,0,1,-1.195013062954464,0,0,3,0,left,77,1,1,1
416,59d3bc2147f4e80001a6c559_thisExp_2024-06-24_19h51.13.411.csv,-0.15254237288135594,17,images/car.png,3,1,1,0,1,-1.2170580438745915,0,0,3,0,left,77,1,1,1
417,59d3bc2147f4e80001a6c559_thisExp_2024-06-24_19h51.13.411.csv,-0.05084745762711865,18,images/car.png,3,1,1,1,1,0.0006997551142732649,0,0,3,0,left,77,1,1,1
418,59d3bc2147f4e80001a6c559_thisExp_2024-06-24_19h51.13.411.csv,-0.03389830508474576,19,images/car.png,3,1,1,0,1,-0.9095634111247286,0,0,3,0,left,77,1,1,1
419,59d3bc2147f4e80001a6c559_thisExp_2024-06-24_19h51.13.411.csv,-0.01694915254237288,20,images/car.png,3,1,1,0,1,-1.3827008256097604,0,0,3,0,left,77,1,1,1
420,5c1d234d89f035000172aeb7_thisExp_2024-06-24_19h51.25.740.csv,-0.864406779661017,1,start,1,1,0,1,1,1.4381749829968795,1,0,3,1,right,28,1,1,0
421,5c1d234d89f035000172aeb7_thisExp_2024-06-24_19h51.25.740.csv,-0.847457627118644,2,start,1,1,1,0,1,1.4250341894358212,1,1,3,1,right,28,1,1,1
422,5c1d234d89f035000172aeb7_thisExp_2024-06-24_19h51.25.740.csv,-0.8305084745762712,3,start,1,1,1,0,1,0.7251302264129961,1,1,3,1,right,28,1,1,1
423,5c1d234d89f035000172aeb7_thisExp_2024-06-24_19h51.25.740.csv,-0.7966101694915254,4,start,1,1,1,1,1,1.1049256507247018,1,1,3,1,right,28,1,1,1
424,5c1d234d89f035000172aeb7_thisExp_2024-06-24_19h51.25.740.csv,-0.7796610169491526,5,start,1,1,1,0,1,0.7626732432085556,1,1,3,1,right,28,1,1,1
425,5c1d234d89f035000172aeb7_thisExp_2024-06-24_19h51.25.740.csv,-0.711864406779661,6,start,1,1,1,1,1,1.0929295055326116,1,1,3,1,right,28,1,1,1
426,5c1d234d89f035000172aeb7_thisExp_2024-06-24_19h51.25.740.csv,-0.6440677966101694,7,start,1,1,1,1,1,0.9741822102899327,1,1,3,1,right,28,1,1,1
427,5c1d234d89f035000172aeb7_thisExp_2024-06-24_19h51.25.740.csv,-0.5932203389830508,8,start,1,0,1,1,1,1.3102229241685952,1,0,3,1,left,28,0,1,1
428,5c1d234d89f035000172aeb7_thisExp_2024-06-24_19h51.25.740.csv,-0.576271186440678,9,start,1,1,0,0,1,0.5966362801791015,1,0,3,1,right,28,1,1,0
429,5c1d234d89f035000172aeb7_thisExp_2024-06-24_19h51.25.740.csv,-0.5423728813559322,10,start,1,1,1,1,1,0.9700210542951229,1,1,3,1,right,28,1,1,1
430,5c1d234d89f035000172aeb7_thisExp_2024-06-24_19h51.25.740.csv,-0.5084745762711864,11,start,1,1,1,1,1,0.5771750043075246,1,1,3,1,right,28,1,1,1
431,5c1d234d89f035000172aeb7_thisExp_2024-06-24_19h51.25.740.csv,-0.4576271186440678,12,start,1,1,1,1,1,0.9504989032038922,1,1,3,1,right,28,1,1,1
432,5c1d234d89f035000172aeb7_thisExp_2024-06-24_19h51.25.740.csv,-0.4406779661016949,13,start,1,1,1,0,1,1.0321162973797453,1,1,3,1,right,28,1,1,1
433,5c1d234d89f035000172aeb7_thisExp_2024-06-24_19h51.25.740.csv,-0.423728813559322,14,start,1,1,1,0,1,0.4140944348062188,1,1,3,1,right,28,1,1,1
434,5c1d234d89f035000172aeb7_thisExp_2024-06-24_19h51.25.740.csv,-0.3898305084745763,15,start,1,1,1,1,1,1.5225719794124384,1,1,3,1,right,28,1,1,1
435,5c1d234d89f035000172aeb7_thisExp_2024-06-24_19h51.25.740.csv,-0.288135593220339,16,start,1,1,1,1,1,0.9130856009252067,1,1,3,1,right,28,1,1,1
436,5c1d234d89f035000172aeb7_thisExp_2024-06-24_19h51.25.740.csv,-0.2033898305084746,17,start,1,1,1,1,1,0.7006191953986464,1,1,3,1,right,28,1,1,1
437,5c1d234d89f035000172aeb7_thisExp_2024-06-24_19h51.25.740.csv,-0.1864406779661017,18,start,1,1,1,0,1,1.0553567799971526,1,1,3,1,right,28,1,1,1
438,5c1d234d89f035000172aeb7_thisExp_2024-06-24_19h51.25.740.csv,-0.0847457627118644,19,start,1,1,1,1,1,0.6075892921982987,1,1,3,1,right,28,1,1,1
439,5c1d234d89f035000172aeb7_thisExp_2024-06-24_19h51.25.740.csv,-0.05084745762711865,20,start,1,1,1,1,1,0.8858315243894465,1,1,3,1,right,28,1,1,1
440,5c1d234d89f035000172aeb7_thisExp_2024-06-24_19h51.25.740.csv,-0.864406779661017,1,images/toothbrush.png,2,1,1,1,1,0.18647956694261839,1,0,3,0,left,28,1,1,1
441,5c1d234d89f035000172aeb7_thisExp_2024-06-24_19h51.25.740.csv,-0.847457627118644,2,images/toothbrush.png,2,1,1,0,1,-0.038740828316430595,1,1,3,0,left,28,1,1,1
442,5c1d234d89f035000172aeb7_thisExp_2024-06-24_19h51.25.740.csv,-0.8305084745762712,3,images/toothbrush.png,2,1,1,0,1,-0.23193205734728903,1,1,3,0,left,28,1,1,1
443,5c1d234d89f035000172aeb7_thisExp_2024-06-24_19h51.25.740.csv,-0.7966101694915254,4,images/toothbrush.png,2,1,1,1,1,0.2692634869277628,1,1,3,0,left,28,1,1,1
444,5c1d234d89f035000172aeb7_thisExp_2024-06-24_19h51.25.740.csv,-0.7796610169491526,5,images/toothbrush.png,2,1,1,0,1,-0.42159449003804794,1,1,3,0,left,28,1,1,1
445,5c1d234d89f035000172aeb7_thisExp_2024-06-24_19h51.25.740.csv,-0.711864406779661,6,images/toothbrush.png,2,1,1,1,1,0.6307397204313283,1,1,3,0,left,28,1,1,1
446,5c1d234d89f035000172aeb7_thisExp_2024-06-24_19h51.25.740.csv,-0.6440677966101694,7,images/toothbrush.png,2,1,1,1,1,-0.3174542307854511,1,1,3,0,left,28,1,1,1
447,5c1d234d89f035000172aeb7_thisExp_2024-06-24_19h51.25.740.csv,-0.5932203389830508,8,images/baby.png,2,0,1,1,1,1.660511182618101,0,0,3,0,space,28,0,0,1
448,5c1d234d89f035000172aeb7_thisExp_2024-06-24_19h51.25.740.csv,-0.576271186440678,9,images/toothbrush.png,2,1,0,0,1,0.6413274318301488,1,1,3,0,left,28,1,1,0
449,5c1d234d89f035000172aeb7_thisExp_2024-06-24_19h51.25.740.csv,-0.5423728813559322,10,images/toothbrush.png,2,1,1,1,1,-0.42924563677356775,1,1,3,0,left,28,1,1,1
450,5c1d234d89f035000172aeb7_thisExp_2024-06-24_19h51.25.740.csv,-0.5084745762711864,11,images/toothbrush.png,2,1,1,1,1,-0.7339691750802004,1,1,3,0,left,28,1,1,1
451,5c1d234d89f035000172aeb7_thisExp_2024-06-24_19h51.25.740.csv,-0.4576271186440678,12,images/toothbrush.png,2,1,1,1,1,-0.03459144476961909,1,1,3,0,left,28,1,1,1
452,5c1d234d89f035000172aeb7_thisExp_2024-06-24_19h51.25.740.csv,-0.4406779661016949,13,images/toothbrush.png,2,1,1,0,1,-0.6792442753909539,1,1,3,0,left,28,1,1,1
453,5c1d234d89f035000172aeb7_thisExp_2024-06-24_19h51.25.740.csv,-0.423728813559322,14,images/toothbrush.png,2,1,1,0,1,-0.6273594400219421,1,1,3,0,left,28,1,1,1
454,5c1d234d89f035000172aeb7_thisExp_2024-06-24_19h51.25.740.csv,-0.3898305084745763,15,images/toothbrush.png,2,1,1,1,1,-0.6991652528855083,1,1,3,0,left,28,1,1,1
455,5c1d234d89f035000172aeb7_thisExp_2024-06-24_19h51.25.740.csv,-0.288135593220339,16,images/toothbrush.png,2,1,1,1,1,-0.19845093872383832,1,1,3,0,left,28,1,1,1
456,5c1d234d89f035000172aeb7_thisExp_2024-06-24_19h51.25.740.csv,-0.2033898305084746,17,images/toothbrush.png,2,1,1,1,1,-0.9364934391916745,1,1,3,0,left,28,1,1,1
457,5c1d234d89f035000172aeb7_thisExp_2024-06-24_19h51.25.740.csv,-0.1864406779661017,18,images/toothbrush.png,2,1,1,0,1,-0.6462635946610948,1,1,3,0,left,28,1,1,1
458,5c1d234d89f035000172aeb7_thisExp_2024-06-24_19h51.25.740.csv,-0.0847457627118644,19,images/toothbrush.png,2,1,1,1,1,-1.1744140020843916,1,1,3,0,left,28,1,1,1
459,5c1d234d89f035000172aeb7_thisExp_2024-06-24_19h51.25.740.csv,-0.05084745762711865,20,images/toothbrush.png,2,1,1,1,1,-0.7236063880446539,1,1,3,0,left,28,1,1,1
460,5c1d234d89f035000172aeb7_thisExp_2024-06-24_19h51.25.740.csv,-0.864406779661017,1,images/car.png,3,1,1,1,1,-0.4400565528777834,0,0,3,0,left,28,1,1,1
461,5c1d234d89f035000172aeb7_thisExp_2024-06-24_19h51.25.740.csv,-0.847457627118644,2,images/car.png,3,1,1,0,1,-1.0847093834991182,0,0,3,0,left,28,1,1,1
462,5c1d234d89f035000172aeb7_thisExp_2024-06-24_19h51.25.740.csv,-0.8305084745762712,3,images/car.png,3,1,1,0,1,-1.0469690555162714,0,0,3,0,left,28,1,1,1
463,5c1d234d89f035000172aeb7_thisExp_2024-06-24_19h51.25.740.csv,-0.7966101694915254,4,images/car.png,3,1,1,1,1,-0.8675005677047231,0,0,3,0,left,28,1,1,1
464,5c1d234d89f035000172aeb7_thisExp_2024-06-24_19h51.25.740.csv,-0.7796610169491526,5,images/car.png,3,1,1,0,1,-0.9519179095173061,0,0,3,0,left,28,1,1,1
465,5c1d234d89f035000172aeb7_thisExp_2024-06-24_19h51.25.740.csv,-0.711864406779661,6,images/car.png,3,1,1,1,1,-0.8603830999358592,0,0,3,0,left,28,1,1,1
466,5c1d234d89f035000172aeb7_thisExp_2024-06-24_19h51.25.740.csv,-0.6440677966101694,7,images/car.png,3,1,1,1,1,-1.491654876777717,0,0,3,0,left,28,1,1,1
467,5c1d234d89f035000172aeb7_thisExp_2024-06-24_19h51.25.740.csv,-0.5932203389830508,8,images/backpack.png,3,0,1,1,1,0.20782684720231653,0,0,3,0,space,28,0,0,1
468,5c1d234d89f035000172aeb7_thisExp_2024-06-24_19h51.25.740.csv,-0.576271186440678,9,images/car.png,3,1,0,0,1,-1.0469690555162714,0,0,3,0,left,28,1,1,0
469,5c1d234d89f035000172aeb7_thisExp_2024-06-24_19h51.25.740.csv,-0.5423728813559322,10,images/car.png,3,1,1,1,1,-1.4740332754278973,0,0,3,0,left,28,1,1,1
470,5c1d234d89f035000172aeb7_thisExp_2024-06-24_19h51.25.740.csv,-0.5084745762711864,11,images/car.png,3,1,1,1,1,-1.5371172508544744,0,0,3,0,left,28,1,1,1
471,5c1d234d89f035000172aeb7_thisExp_2024-06-24_19h51.25.740.csv,-0.4576271186440678,12,images/car.png,3,1,1,1,1,-1.4188175528254507,0,0,3,0,left,28,1,1,1
472,5c1d234d89f035000172aeb7_thisExp_2024-06-24_19h51.25.740.csv,-0.4406779661016949,13,images/car.png,3,1,1,0,1,-1.4567168254164364,0,0,3,0,left,28,1,1,1
473,5c1d234d89f035000172aeb7_thisExp_2024-06-24_19h51.25.740.csv,-0.423728813559322,14,images/car.png,3,1,1,0,1,-1.7037485919053417,0,0,3,0,left,28,1,1,1
474,5c1d234d89f035000172aeb7_thisExp_2024-06-24_19h51.25.740.csv,-0.3898305084745763,15,images/car.png,3,1,1,1,1,-1.5558971455060706,0,0,3,0,left,28,1,1,1
475,5c1d234d89f035000172aeb7_thisExp_2024-06-24_19h51.25.740.csv,-0.288135593220339,16,images/car.png,3,1,1,1,1,-1.7092582477163114,0,0,3,0,left,28,1,1,1
476,5c1d234d89f035000172aeb7_thisExp_2024-06-24_19h51.25.740.csv,-0.2033898305084746,17,images/car.png,3,1,1,1,1,-1.6144504542576446,0,0,3,0,left,28,1,1,1
477,5c1d234d89f035000172aeb7_thisExp_2024-06-24_19h51.25.740.csv,-0.1864406779661017,18,images/car.png,3,1,1,0,1,-1.2837377727947985,0,0,3,0,left,28,1,1,1
478,5c1d234d89f035000172aeb7_thisExp_2024-06-24_19h51.25.740.csv,-0.0847457627118644,19,images/car.png,3,1,1,1,1,-1.5371172508544744,0,0,3,0,left,28,1,1,1
479,5c1d234d89f035000172aeb7_thisExp_2024-06-24_19h51.25.740.csv,-0.05084745762711865,20,images/car.png,3,1,1,1,1,-1.4961092271270973,0,0,3,0,left,28,1,1,1
480,5c1da6adaaf13200014292cc_thisExp_2024-06-24_19h51.21.884.csv,-0.9661016949152542,1,start,1,1,0,1,1,1.3788416585947056,1,0,3,1,right,35,1,1,0
481,5c1da6adaaf13200014292cc_thisExp_2024-06-24_19h51.21.884.csv,-0.8983050847457628,2,start,1,1,1,1,1,0.822770948353451,1,1,3,1,right,35,1,1,1
482,5c1da6adaaf13200014292cc_thisExp_2024-06-24_19h51.21.884.csv,-0.8813559322033898,3,start,1,1,1,0,1,0.5599014614125832,1,1,3,1,right,35,1,1,1
483,5c1da6adaaf13200014292cc_thisExp_2024-06-24_19h51.21.884.csv,-0.7966101694915254,4,start,1,1,1,1,1,1.4602416060719736,1,1,3,1,right,35,1,1,1
484,5c1da6adaaf13200014292cc_thisExp_2024-06-24_19h51.21.884.csv,-0.7457627118644068,5,start,1,1,1,1,1,1.0257906682962452,1,1,3,1,right,35,1,1,1
485,5c1da6adaaf13200014292cc_thisExp_2024-06-24_19h51.21.884.csv,-0.711864406779661,6,start,1,1,1,1,1,0.07881118042428985,1,1,3,1,right,35,1,1,1
486,5c1da6adaaf13200014292cc_thisExp_2024-06-24_19h51.21.884.csv,-0.6271186440677966,7,start,1,1,1,1,1,0.1892971705303798,1,1,3,1,right,35,1,1,1
487,5c1da6adaaf13200014292cc_thisExp_2024-06-24_19h51.21.884.csv,-0.6101694915254238,8,start,1,1,1,0,1,-0.4939685066995678,1,1,3,1,right,35,1,1,1
488,5c1da6adaaf13200014292cc_thisExp_2024-06-24_19h51.21.884.csv,-0.4745762711864407,9,start,1,1,1,1,1,0.09038899972768075,1,1,3,1,right,35,1,1,1
489,5c1da6adaaf13200014292cc_thisExp_2024-06-24_19h51.21.884.csv,-0.4406779661016949,10,start,1,1,1,1,1,-0.40947312950570314,1,1,3,1,right,35,1,1,1
490,5c1da6adaaf13200014292cc_thisExp_2024-06-24_19h51.21.884.csv,-0.3389830508474576,11,start,1,1,1,1,1,-0.342772038769741,1,1,3,1,right,35,1,1,1
491,5c1da6adaaf13200014292cc_thisExp_2024-06-24_19h51.21.884.csv,-0.3050847457627119,12,start,1,1,1,1,1,-0.7229880225709665,1,1,3,1,right,35,1,1,1
492,5c1da6adaaf13200014292cc_thisExp_2024-06-24_19h51.21.884.csv,-0.288135593220339,13,start,1,1,1,0,1,0.43022275923389103,1,1,3,1,right,35,1,1,1
493,5c1da6adaaf13200014292cc_thisExp_2024-06-24_19h51.21.884.csv,-0.23728813559322035,14,start,1,1,1,1,1,-0.4915133127336178,1,1,3,1,right,35,1,1,1
494,5c1da6adaaf13200014292cc_thisExp_2024-06-24_19h51.21.884.csv,-0.1694915254237288,15,start,1,1,1,1,1,-0.47016364204710104,1,1,3,1,right,35,1,1,1
495,5c1da6adaaf13200014292cc_thisExp_2024-06-24_19h51.21.884.csv,-0.0847457627118644,16,start,1,1,1,1,1,-0.36773589129815726,1,1,3,1,right,35,1,1,1
496,5c1da6adaaf13200014292cc_thisExp_2024-06-24_19h51.21.884.csv,-0.06779661016949153,17,start,1,1,1,0,1,-0.6477914788391481,1,1,3,1,right,35,1,1,1
497,5c1da6adaaf13200014292cc_thisExp_2024-06-24_19h51.21.884.csv,-0.03389830508474576,18,start,1,1,1,1,1,-0.47048374448261276,1,1,3,1,right,35,1,1,1
498,5c1da6adaaf13200014292cc_thisExp_2024-06-24_19h51.21.884.csv,-0.01694915254237288,19,start,1,1,1,0,1,-0.8864892406373653,1,1,3,1,right,35,1,1,1
499,5c1da6adaaf13200014292cc_thisExp_2024-06-24_19h51.21.884.csv,0.0,20,start,1,1,1,0,1,-0.9225603448877504,1,1,3,1,right,35,1,1,1
500,5c1da6adaaf13200014292cc_thisExp_2024-06-24_19h51.21.884.csv,-0.9661016949152542,1,images/toothbrush.png,2,1,1,1,1,0.08148781684626792,1,0,3,0,left,35,1,1,1
501,5c1da6adaaf13200014292cc_thisExp_2024-06-24_19h51.21.884.csv,-0.8983050847457628,2,images/toothbrush.png,2,1,1,1,1,-1.2729656758128873,1,1,3,0,left,35,1,1,1
502,5c1da6adaaf13200014292cc_thisExp_2024-06-24_19h51.21.884.csv,-0.8813559322033898,3,images/toothbrush.png,2,1,1,0,1,-1.9668273973107016,1,1,3,0,left,35,1,1,1
503,5c1da6adaaf13200014292cc_thisExp_2024-06-24_19h51.21.884.csv,-0.7966101694915254,4,images/toothbrush.png,2,1,1,1,1,-1.2430601930339829,1,1,3,0,left,35,1,1,1
504,5c1da6adaaf13200014292cc_thisExp_2024-06-24_19h51.21.884.csv,-0.7457627118644068,5,images/toothbrush.png,2,1,1,1,1,-1.4325477456373528,1,1,3,0,left,35,1,1,1
505,5c1da6adaaf13200014292cc_thisExp_2024-06-24_19h51.21.884.csv,-0.711864406779661,6,images/toothbrush.png,2,1,1,1,1,-1.567816237743281,1,1,3,0,left,35,1,1,1
506,5c1da6adaaf13200014292cc_thisExp_2024-06-24_19h51.21.884.csv,-0.6271186440677966,7,images/toothbrush.png,2,1,1,1,1,-2.1269525243508878,1,1,3,0,left,35,1,1,1
507,5c1da6adaaf13200014292cc_thisExp_2024-06-24_19h51.21.884.csv,-0.6101694915254238,8,images/toothbrush.png,2,1,1,0,1,-1.7109170813839543,1,1,3,0,left,35,1,1,1
508,5c1da6adaaf13200014292cc_thisExp_2024-06-24_19h51.21.884.csv,-0.4745762711864407,9,images/toothbrush.png,2,1,1,1,1,-1.6591535046800332,1,1,3,0,left,35,1,1,1
509,5c1da6adaaf13200014292cc_thisExp_2024-06-24_19h51.21.884.csv,-0.4406779661016949,10,images/toothbrush.png,2,1,1,1,1,-1.8457933577205405,1,1,3,0,left,35,1,1,1
510,5c1da6adaaf13200014292cc_thisExp_2024-06-24_19h51.21.884.csv,-0.3389830508474576,11,images/toothbrush.png,2,1,1,1,1,-2.1567546447825063,1,1,3,0,left,35,1,1,1
511,5c1da6adaaf13200014292cc_thisExp_2024-06-24_19h51.21.884.csv,-0.3050847457627119,12,images/toothbrush.png,2,1,1,1,1,-2.115275994689052,1,1,3,0,left,35,1,1,1
512,5c1da6adaaf13200014292cc_thisExp_2024-06-24_19h51.21.884.csv,-0.288135593220339,13,images/toothbrush.png,2,1,1,0,1,-1.7561992938295041,1,1,3,0,left,35,1,1,1
513,5c1da6adaaf13200014292cc_thisExp_2024-06-24_19h51.21.884.csv,-0.23728813559322035,14,images/toothbrush.png,2,1,1,1,1,-1.987774353154012,1,1,3,0,left,35,1,1,1
514,5c1da6adaaf13200014292cc_thisExp_2024-06-24_19h51.21.884.csv,-0.1694915254237288,15,images/toothbrush.png,2,1,1,1,1,-1.8812466357295912,1,1,3,0,left,35,1,1,1
515,5c1da6adaaf13200014292cc_thisExp_2024-06-24_19h51.21.884.csv,-0.0847457627118644,16,images/toothbrush.png,2,1,1,1,1,-1.4346446220609372,1,1,3,0,left,35,1,1,1
516,5c1da6adaaf13200014292cc_thisExp_2024-06-24_19h51.21.884.csv,-0.06779661016949153,17,images/toothbrush.png,2,1,1,0,1,-1.7147984280919266,1,1,3,0,left,35,1,1,1
517,5c1da6adaaf13200014292cc_thisExp_2024-06-24_19h51.21.884.csv,-0.03389830508474576,18,images/toothbrush.png,2,1,1,1,1,-1.7826015314432895,1,1,3,0,left,35,1,1,1
518,5c1da6adaaf13200014292cc_thisExp_2024-06-24_19h51.21.884.csv,-0.01694915254237288,19,images/toothbrush.png,2,1,1,0,1,-1.5549497271500305,1,1,3,0,left,35,1,1,1
519,5c1da6adaaf13200014292cc_thisExp_2024-06-24_19h51.21.884.csv,0.0,20,images/toothbrush.png,2,1,1,0,1,-1.4850103340590484,1,1,3,0,left,35,1,1,1
520,5c1da6adaaf13200014292cc_thisExp_2024-06-24_19h51.21.884.csv,-0.9661016949152542,1,images/car.png,3,1,1,1,1,-1.0277811079075183,0,0,3,0,left,35,1,1,1
521,5c1da6adaaf13200014292cc_thisExp_2024-06-24_19h51.21.884.csv,-0.8983050847457628,2,images/car.png,3,1,1,1,1,-1.4934342366777942,0,0,3,0,left,35,1,1,1
522,5c1da6adaaf13200014292cc_thisExp_2024-06-24_19h51.21.884.csv,-0.8813559322033898,3,images/car.png,3,1,1,0,1,-1.6723777122079746,0,0,3,0,left,35,1,1,1
523,5c1da6adaaf13200014292cc_thisExp_2024-06-24_19h51.21.884.csv,-0.7966101694915254,4,images/car.png,3,1,1,1,1,-1.2679781343018484,0,0,3,0,left,35,1,1,1
524,5c1da6adaaf13200014292cc_thisExp_2024-06-24_19h51.21.884.csv,-0.7457627118644068,5,images/car.png,3,1,1,1,1,-1.3866944411412303,0,1,3,0,left,35,1,1,1
525,5c1da6adaaf13200014292cc_thisExp_2024-06-24_19h51.21.884.csv,-0.711864406779661,6,images/car.png,3,1,1,1,1,-1.4532892299441689,0,1,3,0,left,35,1,1,1
526,5c1da6adaaf13200014292cc_thisExp_2024-06-24_19h51.21.884.csv,-0.6271186440677966,7,images/car.png,3,1,1,1,1,-1.3672763552841287,0,0,3,0,left,35,1,1,1
527,5c1da6adaaf13200014292cc_thisExp_2024-06-24_19h51.21.884.csv,-0.6101694915254238,8,images/car.png,3,1,1,0,1,-1.4422299934501939,0,0,3,0,left,35,1,1,1
528,5c1da6adaaf13200014292cc_thisExp_2024-06-24_19h51.21.884.csv,-0.4745762711864407,9,images/car.png,3,1,1,1,1,-1.6204988597935253,0,0,3,0,left,35,1,1,1
529,5c1da6adaaf13200014292cc_thisExp_2024-06-24_19h51.21.884.csv,-0.4406779661016949,10,images/car.png,3,1,1,1,1,-1.5639866495301828,0,0,3,0,left,35,1,1,1
530,5c1da6adaaf13200014292cc_thisExp_2024-06-24_19h51.21.884.csv,-0.3389830508474576,11,images/car.png,3,1,1,1,1,-1.6922761907431048,0,0,3,0,left,35,1,1,1
531,5c1da6adaaf13200014292cc_thisExp_2024-06-24_19h51.21.884.csv,-0.3050847457627119,12,images/car.png,3,1,1,1,1,-1.7515776795952231,0,0,3,0,left,35,1,1,1
532,5c1da6adaaf13200014292cc_thisExp_2024-06-24_19h51.21.884.csv,-0.288135593220339,13,images/car.png,3,1,1,0,1,-1.6502599069543555,0,0,3,0,left,35,1,1,1
533,5c1da6adaaf13200014292cc_thisExp_2024-06-24_19h51.21.884.csv,-0.23728813559322035,14,images/car.png,3,1,1,1,1,-1.8799351601317804,0,1,3,0,left,35,1,1,1
534,5c1da6adaaf13200014292cc_thisExp_2024-06-24_19h51.21.884.csv,-0.1694915254237288,15,images/car.png,3,1,1,1,1,-1.5587447981185822,0,0,3,0,left,35,1,1,1
535,5c1da6adaaf13200014292cc_thisExp_2024-06-24_19h51.21.884.csv,-0.0847457627118644,16,images/car.png,3,1,1,1,1,-1.7573580425107227,0,0,3,0,left,35,1,1,1
536,5c1da6adaaf13200014292cc_thisExp_2024-06-24_19h51.21.884.csv,-0.06779661016949153,17,images/car.png,3,1,1,0,1,-1.6518236289305381,0,0,3,0,left,35,1,1,1
537,5c1da6adaaf13200014292cc_thisExp_2024-06-24_19h51.21.884.csv,-0.03389830508474576,18,images/car.png,3,1,1,1,1,-1.4413843274378506,0,1,3,0,left,35,1,1,1
538,5c1da6adaaf13200014292cc_thisExp_2024-06-24_19h51.21.884.csv,-0.01694915254237288,19,images/car.png,3,1,1,0,1,-1.5516408137078836,0,1,3,0,left,35,1,1,1
539,5c1da6adaaf13200014292cc_thisExp_2024-06-24_19h51.21.884.csv,0.0,20,images/car.png,3,1,1,0,1,-1.505528449043589,0,1,3,0,left,35,1,1,1
540,5c78b032419dcc0014119082_thisExp_2024-06-24_15h16.59.432.csv,-1.0,1,start,1,1,0,1,1,3.8211350332344067,1,0,3,1,right,22,1,1,0
541,5c78b032419dcc0014119082_thisExp_2024-06-24_15h16.59.432.csv,-0.9491525423728814,2,start,1,1,1,1,1,1.7188840704768786,1,1,3,1,right,22,1,1,1
542,5c78b032419dcc0014119082_thisExp_2024-06-24_15h16.59.432.csv,-0.9152542372881356,3,start,1,1,1,1,1,1.971870250724845,1,1,3,1,right,22,1,1,1
543,5c78b032419dcc0014119082_thisExp_2024-06-24_15h16.59.432.csv,-0.8983050847457628,4,start,1,1,1,0,1,1.389190164231916,1,1,3,1,right,22,1,1,1
544,5c78b032419dcc0014119082_thisExp_2024-06-24_15h16.59.432.csv,-0.8813559322033898,5,start,1,1,1,0,1,2.002843934493588,1,1,3,1,right,22,1,1,1
545,5c78b032419dcc0014119082_thisExp_2024-06-24_15h16.59.432.csv,-0.864406779661017,6,start,1,1,1,0,1,0.8854603214815526,1,1,3,1,right,22,1,1,1
546,5c78b032419dcc0014119082_thisExp_2024-06-24_15h16.59.432.csv,-0.8305084745762712,7,start,1,1,1,1,1,3.060334855139648,1,1,3,1,right,22,1,1,1
547,5c78b032419dcc0014119082_thisExp_2024-06-24_15h16.59.432.csv,-0.8135593220338984,8,start,1,1,1,0,1,0.29579904055372847,1,1,3,1,right,22,1,1,1
548,5c78b032419dcc0014119082_thisExp_2024-06-24_15h16.59.432.csv,-0.5932203389830508,9,start,1,1,1,1,1,1.666876287081365,1,1,3,1,right,22,1,1,1
549,5c78b032419dcc0014119082_thisExp_2024-06-24_15h16.59.432.csv,-0.576271186440678,10,start,1,1,1,0,1,0.4072634900495437,1,1,3,1,right,22,1,1,1
550,5c78b032419dcc0014119082_thisExp_2024-06-24_15h16.59.432.csv,-0.5084745762711864,11,start,1,1,1,1,1,0.3937298518897434,1,1,3,1,right,22,1,1,1
551,5c78b032419dcc0014119082_thisExp_2024-06-24_15h16.59.432.csv,-0.4406779661016949,12,start,1,1,1,1,1,1.2836523691480108,1,1,3,1,right,22,1,1,1
552,5c78b032419dcc0014119082_thisExp_2024-06-24_15h16.59.432.csv,-0.3389830508474576,13,start,1,1,1,1,1,0.4400597528726634,1,1,3,1,right,22,1,1,1
553,5c78b032419dcc0014119082_thisExp_2024-06-24_15h16.59.432.csv,-0.288135593220339,14,start,1,1,1,1,1,0.06325644963501477,1,1,3,1,right,22,1,1,1
554,5c78b032419dcc0014119082_thisExp_2024-06-24_15h16.59.432.csv,-0.23728813559322035,15,start,1,1,1,1,1,0.29408652012477515,1,1,3,1,right,22,1,1,1
555,5c78b032419dcc0014119082_thisExp_2024-06-24_15h16.59.432.csv,-0.22033898305084745,16,start,1,1,1,0,1,0.4520942087021677,1,1,3,1,right,22,1,1,1
556,5c78b032419dcc0014119082_thisExp_2024-06-24_15h16.59.432.csv,-0.2033898305084746,17,start,1,1,1,0,1,-0.28342448219913974,1,1,3,1,right,22,1,1,1
557,5c78b032419dcc0014119082_thisExp_2024-06-24_15h16.59.432.csv,-0.11864406779661017,18,start,1,1,1,1,1,0.012718772407774612,1,1,3,1,right,22,1,1,1
558,5c78b032419dcc0014119082_thisExp_2024-06-24_15h16.59.432.csv,-0.03389830508474576,19,start,1,1,1,1,1,0.5083826421148507,1,1,3,1,right,22,1,1,1
559,5c78b032419dcc0014119082_thisExp_2024-06-24_15h16.59.432.csv,-0.01694915254237288,20,start,1,1,1,0,1,-0.07569384436920029,1,1,3,1,right,22,1,1,1
560,5c78b032419dcc0014119082_thisExp_2024-06-24_15h16.59.432.csv,-1.0,1,images/toothbrush.png,2,1,1,1,1,2.772182389697894,1,0,3,0,left,22,1,1,1
561,5c78b032419dcc0014119082_thisExp_2024-06-24_15h16.59.432.csv,-0.9491525423728814,2,images/toothbrush.png,2,1,1,1,1,1.41878575231982,1,1,3,0,left,22,1,1,1
562,5c78b032419dcc0014119082_thisExp_2024-06-24_15h16.59.432.csv,-0.9152542372881356,3,images/toothbrush.png,2,1,1,1,1,1.5439816369554844,1,1,3,0,left,22,1,1,1
563,5c78b032419dcc0014119082_thisExp_2024-06-24_15h16.59.432.csv,-0.8983050847457628,4,images/toothbrush.png,2,1,1,0,1,-0.2953110996162721,1,1,3,0,left,22,1,1,1
564,5c78b032419dcc0014119082_thisExp_2024-06-24_15h16.59.432.csv,-0.8813559322033898,5,images/toothbrush.png,2,1,1,0,1,-1.0199859682129202,1,1,3,0,left,22,1,1,1
565,5c78b032419dcc0014119082_thisExp_2024-06-24_15h16.59.432.csv,-0.864406779661017,6,images/toothbrush.png,2,1,1,0,1,-0.8940401229393353,1,1,3,0,left,22,1,1,1
566,5c78b032419dcc0014119082_thisExp_2024-06-24_15h16.59.432.csv,-0.8305084745762712,7,images/toothbrush.png,2,1,1,1,1,-0.11507420784546542,1,1,3,0,left,22,1,1,1
567,5c78b032419dcc0014119082_thisExp_2024-06-24_15h16.59.432.csv,-0.8135593220338984,8,images/toothbrush.png,2,1,1,0,1,-1.1211646931386212,1,1,3,0,left,22,1,1,1
568,5c78b032419dcc0014119082_thisExp_2024-06-24_15h16.59.432.csv,-0.5932203389830508,9,images/toothbrush.png,2,1,1,1,1,1.5894596697184353,1,1,3,0,left,22,1,1,1
569,5c78b032419dcc0014119082_thisExp_2024-06-24_15h16.59.432.csv,-0.576271186440678,10,images/toothbrush.png,2,1,1,0,1,-0.4246479275249383,1,1,3,0,left,22,1,1,1
570,5c78b032419dcc0014119082_thisExp_2024-06-24_15h16.59.432.csv,-0.5084745762711864,11,images/toothbrush.png,2,1,1,1,1,0.4515850437217175,1,1,3,0,left,22,1,1,1
571,5c78b032419dcc0014119082_thisExp_2024-06-24_15h16.59.432.csv,-0.4406779661016949,12,images/toothbrush.png,2,1,1,1,1,-0.2969246538187135,1,1,3,0,left,22,1,1,1
572,5c78b032419dcc0014119082_thisExp_2024-06-24_15h16.59.432.csv,-0.3389830508474576,13,images/toothbrush.png,2,1,1,1,1,-0.8305718564716175,1,1,3,0,left,22,1,1,1
573,5c78b032419dcc0014119082_thisExp_2024-06-24_15h16.59.432.csv,-0.288135593220339,14,images/toothbrush.png,2,1,1,1,1,-0.8022926278207433,1,1,3,0,left,22,1,1,1
574,5c78b032419dcc0014119082_thisExp_2024-06-24_15h16.59.432.csv,-0.23728813559322035,15,images/toothbrush.png,2,1,1,1,1,2.532585085104742,1,1,3,0,left,22,1,1,1
575,5c78b032419dcc0014119082_thisExp_2024-06-24_15h16.59.432.csv,-0.22033898305084745,16,images/toothbrush.png,2,1,1,0,1,-0.866786536971066,1,1,3,0,left,22,1,1,1
576,5c78b032419dcc0014119082_thisExp_2024-06-24_15h16.59.432.csv,-0.2033898305084746,17,images/toothbrush.png,2,1,1,0,1,-1.3625778345025745,1,1,3,0,left,22,1,1,1
577,5c78b032419dcc0014119082_thisExp_2024-06-24_15h16.59.432.csv,-0.11864406779661017,18,images/toothbrush.png,2,1,1,1,1,-0.871078389052607,1,1,3,0,left,22,1,1,1
578,5c78b032419dcc0014119082_thisExp_2024-06-24_15h16.59.432.csv,-0.03389830508474576,19,images/toothbrush.png,2,1,1,1,1,-1.290620611051608,1,1,3,0,left,22,1,1,1
579,5c78b032419dcc0014119082_thisExp_2024-06-24_15h16.59.432.csv,-0.01694915254237288,20,images/toothbrush.png,2,1,1,0,1,-0.9321660810324452,1,1,3,0,left,22,1,1,1
580,5c78b032419dcc0014119082_thisExp_2024-06-24_15h16.59.432.csv,-1.0,1,images/car.png,3,1,1,1,1,0.9017454604321193,0,0,3,0,left,22,1,1,1
581,5c78b032419dcc0014119082_thisExp_2024-06-24_15h16.59.432.csv,-0.9491525423728814,2,images/car.png,3,1,1,1,1,-1.0544040340037895,0,1,3,0,left,22,1,1,1
582,5c78b032419dcc0014119082_thisExp_2024-06-24_15h16.59.432.csv,-0.9152542372881356,3,images/car.png,3,1,1,1,1,-3.123565645063876,0,0,3,0,left,22,1,1,1
583,5c78b032419dcc0014119082_thisExp_2024-06-24_15h16.59.432.csv,-0.8983050847457628,4,images/car.png,3,1,1,0,1,-1.6435118927678518,0,0,3,0,left,22,1,1,1
584,5c78b032419dcc0014119082_thisExp_2024-06-24_15h16.59.432.csv,-0.8813559322033898,5,images/car.png,3,1,1,0,1,-1.3955369424868231,0,0,3,0,left,22,1,1,1
585,5c78b032419dcc0014119082_thisExp_2024-06-24_15h16.59.432.csv,-0.864406779661017,6,images/car.png,3,1,1,0,1,-0.27272778066997017,0,0,3,0,left,22,1,1,1
586,5c78b032419dcc0014119082_thisExp_2024-06-24_15h16.59.432.csv,-0.8305084745762712,7,images/car.png,3,1,1,1,1,-0.6286711613755805,0,0,3,0,left,22,1,1,1
587,5c78b032419dcc0014119082_thisExp_2024-06-24_15h16.59.432.csv,-0.8135593220338984,8,images/car.png,3,1,1,0,1,-2.1733127572899065,0,0,3,0,left,22,1,1,1
588,5c78b032419dcc0014119082_thisExp_2024-06-24_15h16.59.432.csv,-0.5932203389830508,9,images/car.png,3,1,1,1,1,-3.4966075664668135,0,0,3,0,left,22,1,1,1
589,5c78b032419dcc0014119082_thisExp_2024-06-24_15h16.59.432.csv,-0.576271186440678,10,images/car.png,3,1,1,0,1,-2.0980129272652714,0,0,3,0,left,22,1,1,1
590,5c78b032419dcc0014119082_thisExp_2024-06-24_15h16.59.432.csv,-0.5084745762711864,11,images/car.png,3,1,1,1,1,0.15186234930924603,0,0,3,0,left,22,1,1,1
591,5c78b032419dcc0014119082_thisExp_2024-06-24_15h16.59.432.csv,-0.4406779661016949,12,images/car.png,3,1,1,1,1,-2.484106969617436,0,1,3,0,left,22,1,1,1
592,5c78b032419dcc0014119082_thisExp_2024-06-24_15h16.59.432.csv,-0.3389830508474576,13,images/car.png,3,1,1,1,1,-2.5345171503413346,0,1,3,0,left,22,1,1,1
593,5c78b032419dcc0014119082_thisExp_2024-06-24_15h16.59.432.csv,-0.288135593220339,14,images/car.png,3,1,1,1,1,-2.7379940774752822,0,1,3,0,left,22,1,1,1
594,5c78b032419dcc0014119082_thisExp_2024-06-24_15h16.59.432.csv,-0.23728813559322035,15,images/car.png,3,1,1,1,1,-3.1488834530481657,0,0,3,0,left,22,1,1,1
595,5c78b032419dcc0014119082_thisExp_2024-06-24_15h16.59.432.csv,-0.22033898305084745,16,images/car.png,3,1,1,0,1,-1.8042369907391675,0,0,3,0,left,22,1,1,1
596,5c78b032419dcc0014119082_thisExp_2024-06-24_15h16.59.432.csv,-0.2033898305084746,17,images/car.png,3,1,1,0,1,-1.9358608132023118,0,0,3,0,left,22,1,1,1
597,5c78b032419dcc0014119082_thisExp_2024-06-24_15h16.59.432.csv,-0.11864406779661017,18,images/car.png,3,1,1,1,1,-3.3467091963780855,0,1,3,0,left,22,1,1,1
598,5c78b032419dcc0014119082_thisExp_2024-06-24_15h16.59.432.csv,-0.03389830508474576,19,images/car.png,3,1,1,1,1,-2.8150787738607335,0,1,3,0,left,22,1,1,1
599,5c78b032419dcc0014119082_thisExp_2024-06-24_15h16.59.432.csv,-0.01694915254237288,20,images/car.png,3,1,1,0,1,-1.6971768267421072,0,1,3,0,left,22,1,1,1
600,5DB_thisExp_2024-06-24_19h49.58.480.csv,-0.9491525423728814,1,start,1,1,0,1,1,2.75263470848525,1,0,3,1,right,54,0,1,0
601,5DB_thisExp_2024-06-24_19h49.58.480.csv,-0.9152542372881356,2,start,1,0,1,1,1,2.6711026357231122,1,1,3,1,right,54,0,1,0
602,5DB_thisExp_2024-06-24_19h49.58.480.csv,-0.864406779661017,3,start,1,1,0,1,1,2.6637011605280185,1,1,3,1,right,54,1,1,0
603,5DB_thisExp_2024-06-24_19h49.58.480.csv,-0.7966101694915254,4,start,1,1,1,1,1,3.026925661462284,1,1,3,1,right,54,1,1,1
604,5DB_thisExp_2024-06-24_19h49.58.480.csv,-0.7288135593220338,5,start,1,1,1,1,1,1.9969969935621252,1,1,3,1,right,54,1,1,1
605,5DB_thisExp_2024-06-24_19h49.58.480.csv,-0.6101694915254238,6,start,1,1,1,1,1,2.13273346248236,1,1,3,1,right,54,1,1,1
606,5DB_thisExp_2024-06-24_19h49.58.480.csv,-0.5084745762711864,7,start,1,1,1,1,1,2.054508275134624,1,1,3,1,right,54,1,1,1
607,5DB_thisExp_2024-06-24_19h49.58.480.csv,-0.4067796610169492,8,start,1,1,1,1,1,1.2504746379773557,1,1,3,1,right,54,1,1,1
608,5DB_thisExp_2024-06-24_19h49.58.480.csv,-0.23728813559322035,9,start,1,1,1,1,1,0.882651214829918,1,1,3,1,right,54,1,1,1
609,5DB_thisExp_2024-06-24_19h49.58.480.csv,-0.22033898305084745,10,start,1,1,1,0,1,0.21009883779340122,1,1,3,1,right,54,1,1,1
610,5DB_thisExp_2024-06-24_19h49.58.480.csv,-0.1864406779661017,11,start,1,1,1,1,1,-0.061449962316222594,1,1,3,1,right,54,1,1,1
611,5DB_thisExp_2024-06-24_19h49.58.480.csv,-0.1694915254237288,12,start,1,1,1,0,1,-0.04050954333820994,1,1,3,1,right,54,1,1,1
612,5DB_thisExp_2024-06-24_19h49.58.480.csv,-0.15254237288135594,13,start,1,1,1,0,1,-0.25877072895736086,1,1,3,1,right,54,1,1,1
613,5DB_thisExp_2024-06-24_19h49.58.480.csv,-0.13559322033898305,14,start,1,1,1,0,1,0.06663008229776296,1,1,3,1,right,54,1,1,1
614,5DB_thisExp_2024-06-24_19h49.58.480.csv,-0.11864406779661017,15,start,1,1,1,0,1,-0.06827884075329438,1,1,3,1,right,54,1,1,1
615,5DB_thisExp_2024-06-24_19h49.58.480.csv,-0.1016949152542373,16,start,1,1,1,0,1,-0.07969276890924851,1,1,3,1,right,54,1,1,1
616,5DB_thisExp_2024-06-24_19h49.58.480.csv,-0.0847457627118644,17,start,1,1,1,0,1,-0.2207713671691541,1,1,3,1,right,54,1,1,1
617,5DB_thisExp_2024-06-24_19h49.58.480.csv,-0.06779661016949153,18,start,1,1,1,0,1,-0.4815904984976557,1,1,3,1,right,54,1,1,1
618,5DB_thisExp_2024-06-24_19h49.58.480.csv,-0.03389830508474576,19,start,1,1,1,1,1,0.5031965966014995,1,1,3,1,right,54,1,1,1
619,5DB_thisExp_2024-06-24_19h49.58.480.csv,-0.01694915254237288,20,start,1,1,1,0,1,-0.18188165356556932,1,1,3,1,right,54,1,1,1
620,5DB_thisExp_2024-06-24_19h49.58.480.csv,-0.9491525423728814,1,images/toothbrush.png,2,1,1,1,1,1.0764348437234066,1,0,3,0,space,54,0,0,1
621,5DB_thisExp_2024-06-24_19h49.58.480.csv,-0.9152542372881356,2,images/toothbrush.png,2,0,1,1,1,1.0953068316593833,1,1,3,0,space,54,0,0,0
622,5DB_thisExp_2024-06-24_19h49.58.480.csv,-0.864406779661017,3,images/toothbrush.png,2,1,0,1,1,2.3277263854003776,1,0,3,0,left,54,1,1,0
623,5DB_thisExp_2024-06-24_19h49.58.480.csv,-0.7966101694915254,4,images/toothbrush.png,2,1,1,1,1,1.4669753266020318,1,1,3,0,left,54,1,1,1
624,5DB_thisExp_2024-06-24_19h49.58.480.csv,-0.7288135593220338,5,images/toothbrush.png,2,1,1,1,1,2.0478992736699575,1,1,3,0,left,54,1,1,1
625,5DB_thisExp_2024-06-24_19h49.58.480.csv,-0.6101694915254238,6,images/toothbrush.png,2,1,1,1,1,2.706962943585244,1,1,3,0,left,54,1,1,1
626,5DB_thisExp_2024-06-24_19h49.58.480.csv,-0.5084745762711864,7,images/toothbrush.png,2,1,1,1,1,2.021587297570853,1,1,3,0,left,54,1,1,1
627,5DB_thisExp_2024-06-24_19h49.58.480.csv,-0.4067796610169492,8,images/toothbrush.png,2,1,1,1,1,2.108114028930167,1,1,3,0,left,54,1,1,1
628,5DB_thisExp_2024-06-24_19h49.58.480.csv,-0.23728813559322035,9,images/toothbrush.png,2,1,1,1,1,1.561864008320449,1,1,3,0,left,54,1,1,1
629,5DB_thisExp_2024-06-24_19h49.58.480.csv,-0.22033898305084745,10,images/toothbrush.png,2,1,1,0,1,0.2898297645092399,1,1,3,0,left,54,1,1,1
630,5DB_thisExp_2024-06-24_19h49.58.480.csv,-0.1864406779661017,11,images/toothbrush.png,2,1,1,1,1,-0.4546028326697126,1,1,3,0,left,54,1,1,1
631,5DB_thisExp_2024-06-24_19h49.58.480.csv,-0.1694915254237288,12,images/toothbrush.png,2,1,1,0,1,-1.3854946809493265,1,1,3,0,left,54,1,1,1
632,5DB_thisExp_2024-06-24_19h49.58.480.csv,-0.15254237288135594,13,images/toothbrush.png,2,1,1,0,1,-1.3520861897901537,1,1,3,0,left,54,1,1,1
633,5DB_thisExp_2024-06-24_19h49.58.480.csv,-0.13559322033898305,14,images/toothbrush.png,2,1,1,0,1,-1.4528616053920038,1,1,3,0,left,54,1,1,1
634,5DB_thisExp_2024-06-24_19h49.58.480.csv,-0.11864406779661017,15,images/toothbrush.png,2,1,1,0,1,-1.6049480071612483,1,1,3,0,left,54,1,1,1
635,5DB_thisExp_2024-06-24_19h49.58.480.csv,-0.1016949152542373,16,images/toothbrush.png,2,1,1,0,1,-1.612944051763388,1,1,3,0,left,54,1,1,1
636,5DB_thisExp_2024-06-24_19h49.58.480.csv,-0.0847457627118644,17,images/toothbrush.png,2,1,1,0,1,-1.7492748576218997,1,1,3,0,left,54,1,1,1
637,5DB_thisExp_2024-06-24_19h49.58.480.csv,-0.06779661016949153,18,images/toothbrush.png,2,1,1,0,1,-1.3645328693383778,1,1,3,0,left,54,1,1,1
638,5DB_thisExp_2024-06-24_19h49.58.480.csv,-0.03389830508474576,19,images/toothbrush.png,2,1,1,1,1,-0.5196982022695891,1,1,3,0,left,54,1,1,1
639,5DB_thisExp_2024-06-24_19h49.58.480.csv,-0.01694915254237288,20,images/toothbrush.png,2,1,1,0,1,-1.7719568419318752,1,1,3,0,left,54,1,1,1
640,5DB_thisExp_2024-06-24_19h49.58.480.csv,-0.9491525423728814,1,images/car.png,3,1,1,1,1,2.062880155880611,0,0,3,0,left,54,0,1,1
641,5DB_thisExp_2024-06-24_19h49.58.480.csv,-0.9152542372881356,2,images/backpack.png,3,0,1,1,1,1.8694918177684072,0,0,3,0,space,54,0,0,0
642,5DB_thisExp_2024-06-24_19h49.58.480.csv,-0.864406779661017,3,images/car.png,3,1,0,1,1,2.3950366453589575,0,1,3,0,left,54,1,1,0
643,5DB_thisExp_2024-06-24_19h49.58.480.csv,-0.7966101694915254,4,images/car.png,3,1,1,1,1,1.277009488569908,0,0,3,0,left,54,1,1,1
644,5DB_thisExp_2024-06-24_19h49.58.480.csv,-0.7288135593220338,5,images/car.png,3,1,1,1,1,1.7494433034341073,0,0,3,0,left,54,1,1,1
645,5DB_thisExp_2024-06-24_19h49.58.480.csv,-0.6101694915254238,6,images/car.png,3,1,1,1,1,1.9186123602239784,0,0,3,0,left,54,1,1,1
646,5DB_thisExp_2024-06-24_19h49.58.480.csv,-0.5084745762711864,7,images/car.png,3,1,1,1,1,0.9553575870380568,0,0,3,0,left,54,1,1,1
647,5DB_thisExp_2024-06-24_19h49.58.480.csv,-0.4067796610169492,8,images/car.png,3,1,1,1,1,1.3318645741306072,0,0,3,0,left,54,1,1,1
648,5DB_thisExp_2024-06-24_19h49.58.480.csv,-0.23728813559322035,9,images/car.png,3,1,1,1,1,0.9881275554928378,0,0,3,0,left,54,1,1,1
649,5DB_thisExp_2024-06-24_19h49.58.480.csv,-0.22033898305084745,10,images/car.png,3,1,1,0,1,-0.05045154349609822,0,0,3,0,left,54,1,1,1
650,5DB_thisExp_2024-06-24_19h49.58.480.csv,-0.1864406779661017,11,images/car.png,3,1,1,1,1,-0.853785526522758,0,1,3,0,left,54,1,1,1
651,5DB_thisExp_2024-06-24_19h49.58.480.csv,-0.1694915254237288,12,images/car.png,3,1,1,0,1,-2.5421121235587796,0,1,3,0,left,54,1,1,1
652,5DB_thisExp_2024-06-24_19h49.58.480.csv,-0.15254237288135594,13,images/car.png,3,1,1,0,1,-2.1286317858706076,0,1,3,0,left,54,1,1,1
653,5DB_thisExp_2024-06-24_19h49.58.480.csv,-0.13559322033898305,14,images/car.png,3,1,1,0,1,-2.138767007764651,0,1,3,0,left,54,1,1,1
654,5DB_thisExp_2024-06-24_19h49.58.480.csv,-0.11864406779661017,15,images/car.png,3,1,1,0,1,-2.142168371588141,0,1,3,0,left,54,1,1,1
655,5DB_thisExp_2024-06-24_19h49.58.480.csv,-0.1016949152542373,16,images/car.png,3,1,1,0,1,-2.219163484854973,0,1,3,0,left,54,1,1,1
656,5DB_thisExp_2024-06-24_19h49.58.480.csv,-0.0847457627118644,17,images/car.png,3,1,1,0,1,-2.2818025538115174,0,1,3,0,left,54,1,1,1
657,5DB_thisExp_2024-06-24_19h49.58.480.csv,-0.06779661016949153,18,images/car.png,3,1,1,0,1,-2.282782465697866,0,1,3,0,left,54,1,1,1
