,Unnamed: 0,sub,trial_num,trial_num_within_goal,current_state,decision,got_to_goal,got_to_goal_last,goal_switch,control_regressor,RT,eligible_decisions_accuracy,retrieved_cached,planning_depth,delayed_planning,choices,worry,optimally_delayed,optimally_control_choice,optimally_delayed_last,choice_numeric,choices_numeric,choice_numeric_last,interaction_won_and_metachoice,got_to_goal_retrieved_cached,MB_decision,optimal_metacontrol_choice,over_planning,over_control,optimal_metacontrol_choice_last,points_from_choice,points_from_goal,trial_points,total_points,correct_control_action,space_hit_points,goal_points,space_hit_points_total,total_score,metacontrol_accuracy
0,0,5AD_thisExp_2023-05-28_12h16.10.170.csv,-1.0,1,start,1,1,0,1,1,2.3431510547407077,1,0,3,1,right,34,1,1,0,0,1,0.0,0,Lost_Novel,1,1,0,0,0.0,0,400,400,63900,1.0,0,4,0,4,1
1,1,5AD_thisExp_2023-05-28_12h16.10.170.csv,-0.9661016949152542,2,start,1,1,1,1,1,2.046453365852855,1,1,3,1,right,34,1,1,1,0,1,0.0,0,Won_Cached,1,1,0,0,1.0,0,400,400,63900,1.0,0,4,0,4,1
2,2,5AD_thisExp_2023-05-28_12h16.10.170.csv,-0.8813559322033898,3,start,1,0,1,1,1,0.5332718125958207,1,0,3,1,left,34,1,1,1,0,0,0.0,0,Won_Novel,1,1,0,0,1.0,0,0,0,63900,0.0,0,0,0,0,1
3,3,5AD_thisExp_2023-05-28_12h16.10.170.csv,-0.864406779661017,4,start,1,0,0,0,1,0.8694087459740246,1,0,3,1,right,34,1,1,1,0,1,0.0,0,Won_Novel,1,1,0,0,1.0,0,0,0,63900,0.3333333333333333,0,0,0,0,1
4,4,5AD_thisExp_2023-05-28_12h16.10.170.csv,-0.8305084745762712,5,start,1,1,0,1,1,2.124558300482959,1,1,3,1,right,34,1,1,1,0,1,0.0,0,Won_Cached,1,1,0,0,1.0,0,400,400,63900,1.0,0,4,0,4,1
5,5,5AD_thisExp_2023-05-28_12h16.10.170.csv,-0.7966101694915254,6,start,1,1,1,1,1,2.017738995361473,1,1,3,1,right,34,1,1,1,0,1,0.0,0,Won_Cached,1,1,0,0,1.0,0,400,400,63900,1.0,0,4,0,4,1
6,6,5AD_thisExp_2023-05-28_12h16.10.170.csv,-0.7796610169491526,7,start,1,1,1,0,1,3.226863835590384,1,1,3,1,right,34,1,1,1,0,1,0.0,0,Won_Cached,1,1,0,0,1.0,0,400,400,63900,1.0,0,4,0,4,1
7,7,5AD_thisExp_2023-05-28_12h16.10.170.csv,-0.711864406779661,8,start,1,1,1,1,1,0.1564052791641357,1,1,3,1,right,34,1,1,1,0,1,0.0,0,Won_Cached,1,1,0,0,1.0,0,400,400,63900,1.0,0,4,0,4,1
8,8,5AD_thisExp_2023-05-28_12h16.10.170.csv,-0.6949152542372882,9,start,1,1,1,0,1,1.647138239616926,1,1,3,1,right,34,1,1,1,0,1,0.0,0,Won_Cached,1,1,0,0,1.0,0,400,400,63900,1.0,0,4,0,4,1
9,9,5AD_thisExp_2023-05-28_12h16.10.170.csv,-0.559322033898305,10,start,1,0,1,1,1,0.7034934726140896,1,1,3,1,right,34,1,1,1,0,1,0.0,0,Lost_Cached,1,1,0,0,1.0,0,0,0,63900,0.3333333333333333,0,0,0,0,1
10,10,5AD_thisExp_2023-05-28_12h16.10.170.csv,-0.5254237288135594,11,start,1,1,0,1,1,0.7671872932684101,1,1,3,1,right,34,1,1,1,0,1,0.0,0,Won_Cached,1,1,0,0,1.0,0,400,400,63900,1.0,0,4,0,4,1
11,11,5AD_thisExp_2023-05-28_12h16.10.170.csv,-0.4745762711864407,12,start,1,1,1,1,1,0.6380572142419852,1,1,3,1,right,34,1,1,1,0,1,0.0,0,Won_Cached,1,1,0,0,1.0,0,400,400,63900,1.0,0,4,0,4,1
12,12,5AD_thisExp_2023-05-28_12h16.10.170.csv,-0.3728813559322034,13,start,1,1,1,1,1,0.4335989473519356,1,1,3,1,right,34,1,1,1,0,1,0.0,0,Won_Cached,1,1,0,0,1.0,0,400,400,63900,1.0,0,4,0,4,1
13,13,5AD_thisExp_2023-05-28_12h16.10.170.csv,-0.3559322033898305,14,start,1,1,1,0,1,0.2126890934103509,1,1,3,1,right,34,1,1,1,0,1,0.0,0,Won_Cached,1,1,0,0,1.0,0,400,400,63900,1.0,0,4,0,4,1
14,14,5AD_thisExp_2023-05-28_12h16.10.170.csv,-0.3389830508474576,15,start,1,1,1,0,1,0.2908021997880245,1,1,3,1,right,34,1,1,1,0,1,0.0,0,Won_Cached,1,1,0,0,1.0,0,400,400,63900,1.0,0,4,0,4,1
15,15,5AD_thisExp_2023-05-28_12h16.10.170.csv,-0.288135593220339,16,start,1,1,1,1,1,0.2004888607494035,1,1,3,1,right,34,1,1,1,0,1,0.0,0,Won_Cached,1,1,0,0,1.0,0,400,400,63900,1.0,0,4,0,4,1
16,16,5AD_thisExp_2023-05-28_12h16.10.170.csv,-0.1525423728813559,17,start,1,1,1,1,1,0.4358003079042373,1,1,3,1,right,34,1,1,1,0,1,0.0,0,Won_Cached,1,1,0,0,1.0,0,400,400,63900,1.0,0,4,0,4,1
17,17,5AD_thisExp_2023-05-28_12h16.10.170.csv,-0.1186440677966101,18,start,1,1,1,1,1,0.396558898637168,1,1,3,1,right,34,1,1,1,0,1,0.0,0,Won_Cached,1,1,0,0,1.0,0,400,400,63900,1.0,0,4,0,4,1
18,18,5AD_thisExp_2023-05-28_12h16.10.170.csv,-0.0677966101694915,19,start,1,1,1,1,1,0.846211556286782,1,1,3,1,right,34,1,1,1,0,1,0.0,0,Won_Cached,1,1,0,0,1.0,0,400,400,63900,1.0,0,4,0,4,1
19,19,5AD_thisExp_2023-05-28_12h16.10.170.csv,-0.0508474576271186,20,start,1,1,1,0,1,1.2714164764229572,1,1,3,1,right,34,1,1,1,0,1,0.0,0,Won_Cached,1,1,0,0,1.0,0,400,400,63900,1.0,0,4,0,4,1
20,20,5AD_thisExp_2023-05-28_12h16.10.170.csv,-1.0,1,images/toothbrush.png,2,1,1,1,1,2.0990480713187543,1,0,3,0,left,34,1,1,1,0,0,0.0,0,Lost_Novel,0,1,1,0,0.0,0,400,400,63900,1.0,0,4,0,4,1
21,21,5AD_thisExp_2023-05-28_12h16.10.170.csv,-0.9661016949152542,2,images/toothbrush.png,2,1,1,1,1,1.2908566731867497,1,1,3,0,left,34,1,1,1,0,0,0.0,0,Won_Cached,0,1,1,0,1.0,0,400,400,63900,1.0,0,4,0,4,1
22,22,5AD_thisExp_2023-05-28_12h16.10.170.csv,-0.8813559322033898,3,images/baby.png,2,0,1,1,1,-0.519530064396137,0,0,3,0,right,34,1,1,1,0,1,0.0,0,Won_Novel,-10,1,1,0,1.0,0,0,0,63900,0.0,0,0,0,0,0
23,23,5AD_thisExp_2023-05-28_12h16.10.170.csv,-0.864406779661017,4,images/toothbrush.png,2,0,0,0,1,0.2368097420780244,1,0,3,0,right,34,1,1,1,0,1,0.0,0,Won_Novel,0,1,1,0,1.0,0,0,0,63900,0.3333333333333333,0,0,0,0,1
24,24,5AD_thisExp_2023-05-28_12h16.10.170.csv,-0.8305084745762712,5,images/toothbrush.png,2,1,0,1,1,-0.8782726646866342,1,0,3,0,left,34,1,1,1,0,0,0.0,0,Lost_Novel,0,1,1,0,1.0,0,400,400,63900,1.0,0,4,0,4,1
25,25,5AD_thisExp_2023-05-28_12h16.10.170.csv,-0.7966101694915254,6,images/toothbrush.png,2,1,1,1,1,1.586517229049532,1,1,3,0,left,34,1,1,1,0,0,0.0,0,Won_Cached,0,1,1,0,1.0,0,400,400,63900,1.0,0,4,0,4,1
26,26,5AD_thisExp_2023-05-28_12h16.10.170.csv,-0.7796610169491526,7,images/toothbrush.png,2,1,1,0,1,0.2817143006719894,1,1,3,0,left,34,1,1,1,0,0,0.0,0,Won_Cached,0,1,1,0,1.0,0,400,400,63900,1.0,0,4,0,4,1
27,27,5AD_thisExp_2023-05-28_12h16.10.170.csv,-0.711864406779661,8,images/toothbrush.png,2,1,1,1,1,-0.0945304838462332,1,1,3,0,left,34,1,1,1,0,0,0.0,0,Won_Cached,0,1,1,0,1.0,0,400,400,63900,1.0,0,4,0,4,1
28,28,5AD_thisExp_2023-05-28_12h16.10.170.csv,-0.6949152542372882,9,images/toothbrush.png,2,1,1,0,1,-1.1168780974750023,1,1,3,0,left,34,1,1,1,0,0,0.0,0,Won_Cached,0,1,1,0,1.0,0,400,400,63900,1.0,0,4,0,4,1
29,29,5AD_thisExp_2023-05-28_12h16.10.170.csv,-0.559322033898305,10,images/toothbrush.png,2,0,1,1,1,-1.1177951080848836,1,0,3,0,right,34,1,1,1,0,1,0.0,0,Won_Novel,0,1,1,0,1.0,0,0,0,63900,0.3333333333333333,0,0,0,0,1
30,30,5AD_thisExp_2023-05-28_12h16.10.170.csv,-0.5254237288135594,11,images/toothbrush.png,2,1,0,1,1,-0.7597144248320584,1,0,3,0,left,34,1,1,1,0,0,0.0,0,Lost_Novel,0,1,1,0,1.0,0,400,400,63900,1.0,0,4,0,4,1
31,31,5AD_thisExp_2023-05-28_12h16.10.170.csv,-0.4745762711864407,12,images/toothbrush.png,2,1,1,1,1,-1.1966662291434975,1,1,3,0,left,34,1,1,1,0,0,0.0,0,Won_Cached,0,1,1,0,1.0,0,400,400,63900,1.0,0,4,0,4,1
32,32,5AD_thisExp_2023-05-28_12h16.10.170.csv,-0.3728813559322034,13,images/toothbrush.png,2,1,1,1,1,-0.8096809968158968,1,1,3,0,left,34,1,1,1,0,0,0.0,0,Won_Cached,0,1,1,0,1.0,0,400,400,63900,1.0,0,4,0,4,1
33,33,5AD_thisExp_2023-05-28_12h16.10.170.csv,-0.3559322033898305,14,images/toothbrush.png,2,1,1,0,1,-1.179930809845698,1,1,3,0,left,34,1,1,1,0,0,0.0,0,Won_Cached,0,1,1,0,1.0,0,400,400,63900,1.0,0,4,0,4,1
34,34,5AD_thisExp_2023-05-28_12h16.10.170.csv,-0.3389830508474576,15,images/toothbrush.png,2,1,1,0,1,-1.4996870484749811,1,1,3,0,left,34,1,1,1,0,0,0.0,0,Won_Cached,0,1,1,0,1.0,0,400,400,63900,1.0,0,4,0,4,1
35,35,5AD_thisExp_2023-05-28_12h16.10.170.csv,-0.288135593220339,16,images/toothbrush.png,2,1,1,1,1,-1.0903465442510771,1,1,3,0,left,34,1,1,1,0,0,0.0,0,Won_Cached,0,1,1,0,1.0,0,400,400,63900,1.0,0,4,0,4,1
36,36,5AD_thisExp_2023-05-28_12h16.10.170.csv,-0.1525423728813559,17,images/toothbrush.png,2,1,1,1,1,-0.1479201300766222,1,1,3,0,left,34,1,1,1,0,0,0.0,0,Won_Cached,0,1,1,0,1.0,0,400,400,63900,1.0,0,4,0,4,1
37,37,5AD_thisExp_2023-05-28_12h16.10.170.csv,-0.1186440677966101,18,images/toothbrush.png,2,1,1,1,1,-1.2913478838109371,1,1,3,0,left,34,1,1,1,0,0,0.0,0,Won_Cached,0,1,1,0,1.0,0,400,400,63900,1.0,0,4,0,4,1
38,38,5AD_thisExp_2023-05-28_12h16.10.170.csv,-0.0677966101694915,19,images/toothbrush.png,2,1,1,1,1,-1.075286463364613,1,1,3,0,left,34,1,1,1,0,0,0.0,0,Won_Cached,0,1,1,0,1.0,0,400,400,63900,1.0,0,4,0,4,1
39,39,5AD_thisExp_2023-05-28_12h16.10.170.csv,-0.0508474576271186,20,images/toothbrush.png,2,1,1,0,1,-0.2667036660665892,1,1,3,0,left,34,1,1,1,0,0,0.0,0,Won_Cached,0,1,1,0,1.0,0,400,400,63900,1.0,0,4,0,4,1
40,40,5AD_thisExp_2023-05-28_12h16.10.170.csv,-1.0,1,images/car.png,3,1,1,1,1,0.8294684279181836,0,0,3,0,left,34,1,1,1,0,0,0.0,0,Lost_Novel,0,1,1,0,0.0,0,400,400,63900,1.0,0,4,0,4,1
41,41,5AD_thisExp_2023-05-28_12h16.10.170.csv,-0.9661016949152542,2,images/car.png,3,1,1,1,1,0.8999174177562098,0,0,3,0,left,34,1,1,1,0,0,0.0,0,Lost_Novel,0,1,1,0,1.0,0,400,400,63900,1.0,0,4,0,4,1
42,42,5AD_thisExp_2023-05-28_12h16.10.170.csv,-0.8813559322033898,3,images/bowtie.png,3,0,1,1,1,0.1801525395091146,0,0,3,0,right,34,1,1,1,0,1,0.0,0,Won_Novel,-10,1,1,0,1.0,0,0,0,63900,0.0,0,0,0,0,0
43,43,5AD_thisExp_2023-05-28_12h16.10.170.csv,-0.864406779661017,4,images/backpack.png,3,0,0,0,1,-0.5803543530848232,0,0,3,0,left,34,1,1,1,0,0,0.0,0,Won_Novel,-10,1,1,0,1.0,0,0,0,63900,0.3333333333333333,0,0,0,0,0
44,44,5AD_thisExp_2023-05-28_12h16.10.170.csv,-0.8305084745762712,5,images/car.png,3,1,0,1,1,1.4533687267842117,0,0,3,0,left,34,1,1,1,0,0,0.0,0,Lost_Novel,0,1,1,0,1.0,0,400,400,63900,1.0,0,4,0,4,1
45,45,5AD_thisExp_2023-05-28_12h16.10.170.csv,-0.7966101694915254,6,images/car.png,3,1,1,1,1,1.4567761236582608,0,1,3,0,left,34,1,1,1,0,0,0.0,0,Won_Cached,0,1,1,0,1.0,0,400,400,63900,1.0,0,4,0,4,1
46,46,5AD_thisExp_2023-05-28_12h16.10.170.csv,-0.7796610169491526,7,images/car.png,3,1,1,0,1,-0.0443699477359405,0,1,3,0,left,34,1,1,1,0,0,0.0,0,Won_Cached,0,1,1,0,1.0,0,400,400,63900,1.0,0,4,0,4,1
47,47,5AD_thisExp_2023-05-28_12h16.10.170.csv,-0.711864406779661,8,images/car.png,3,1,1,1,1,0.5101854188785674,0,0,3,0,left,34,1,1,1,0,0,0.0,0,Lost_Novel,0,1,1,0,1.0,0,400,400,63900,1.0,0,4,0,4,1
48,48,5AD_thisExp_2023-05-28_12h16.10.170.csv,-0.6949152542372882,9,images/car.png,3,1,1,0,1,-1.0191543673333945,0,0,3,0,left,34,1,1,1,0,0,0.0,0,Lost_Novel,0,1,1,0,1.0,0,400,400,63900,1.0,0,4,0,4,1
49,49,5AD_thisExp_2023-05-28_12h16.10.170.csv,-0.559322033898305,10,images/backpack.png,3,0,1,1,1,-0.1327317124539582,0,1,3,0,left,34,1,1,1,0,0,0.0,0,Lost_Cached,-10,1,1,0,1.0,0,0,0,63900,0.3333333333333333,0,0,0,0,0
50,50,5AD_thisExp_2023-05-28_12h16.10.170.csv,-0.5254237288135594,11,images/car.png,3,1,0,1,1,-0.3568178112866431,0,0,3,0,left,34,1,1,1,0,0,0.0,0,Lost_Novel,0,1,1,0,1.0,0,400,400,63900,1.0,0,4,0,4,1
51,51,5AD_thisExp_2023-05-28_12h16.10.170.csv,-0.4745762711864407,12,images/car.png,3,1,1,1,1,-0.660486398320397,0,0,3,0,left,34,1,1,1,0,0,0.0,0,Lost_Novel,0,1,1,0,1.0,0,400,400,63900,1.0,0,4,0,4,1
52,52,5AD_thisExp_2023-05-28_12h16.10.170.csv,-0.3728813559322034,13,images/car.png,3,1,1,1,1,-0.8416471888783893,0,1,3,0,left,34,1,1,1,0,0,0.0,0,Won_Cached,0,1,1,0,1.0,0,400,400,63900,1.0,0,4,0,4,1
53,53,5AD_thisExp_2023-05-28_12h16.10.170.csv,-0.3559322033898305,14,images/car.png,3,1,1,0,1,-0.3367322704270728,0,1,3,0,left,34,1,1,1,0,0,0.0,0,Won_Cached,0,1,1,0,1.0,0,400,400,63900,1.0,0,4,0,4,1
54,54,5AD_thisExp_2023-05-28_12h16.10.170.csv,-0.3389830508474576,15,images/car.png,3,1,1,0,1,-1.526476391719753,0,1,3,0,left,34,1,1,1,0,0,0.0,0,Won_Cached,0,1,1,0,1.0,0,400,400,63900,1.0,0,4,0,4,1
55,55,5AD_thisExp_2023-05-28_12h16.10.170.csv,-0.288135593220339,16,images/car.png,3,1,1,1,1,-0.5725237382362065,0,1,3,0,left,34,1,1,1,0,0,0.0,0,Won_Cached,0,1,1,0,1.0,0,400,400,63900,1.0,0,4,0,4,1
56,56,5AD_thisExp_2023-05-28_12h16.10.170.csv,-0.1525423728813559,17,images/car.png,3,1,1,1,1,-1.9255194594075795,0,0,3,0,left,34,1,1,1,0,0,0.0,0,Lost_Novel,0,1,1,0,1.0,0,400,400,63900,1.0,0,4,0,4,1
57,57,5AD_thisExp_2023-05-28_12h16.10.170.csv,-0.1186440677966101,18,images/car.png,3,1,1,1,1,-0.3912663887083514,0,0,3,0,left,34,1,1,1,0,0,0.0,0,Lost_Novel,0,1,1,0,1.0,0,400,400,63900,1.0,0,4,0,4,1
58,58,5AD_thisExp_2023-05-28_12h16.10.170.csv,-0.0677966101694915,19,images/car.png,3,1,1,1,1,-2.1883639489040227,0,1,3,0,left,34,1,1,1,0,0,0.0,0,Won_Cached,0,1,1,0,1.0,0,400,400,63900,1.0,0,4,0,4,1
59,59,5AD_thisExp_2023-05-28_12h16.10.170.csv,-0.0508474576271186,20,images/car.png,3,1,1,0,1,-2.0890879187316416,0,1,3,0,left,34,1,1,1,0,0,0.0,0,Won_Cached,0,1,1,0,1.0,0,400,400,63900,1.0,0,4,0,4,1
60,60,5PARTICIPANT_thisExp_2022-08-04_10h44.32.510.csv,-1.0,1,start,1,0,0,1,1,3.421094775709655,1,0,3,1,left,36,0,1,0,0,0,0.0,0,Won_Novel,1,1,0,0,0.0,0,0,-200,53400,0.0,0,0,2,2,1
61,61,5PARTICIPANT_thisExp_2022-08-04_10h44.32.510.csv,-0.9830508474576272,2,start,1,1,0,0,1,2.1490842020082845,1,0,3,1,right,36,0,1,0,0,1,0.0,0,Lost_Novel,1,1,0,0,1.0,0,400,500,53400,1.0,0,4,1,5,1
62,62,5PARTICIPANT_thisExp_2022-08-04_10h44.32.510.csv,-0.9491525423728814,3,start,1,0,1,1,1,1.5660710157288875,1,1,3,1,right,36,0,1,0,0,1,0.0,0,Lost_Cached,1,1,0,0,1.0,0,0,-200,53400,1.0,0,0,2,2,1
63,63,5PARTICIPANT_thisExp_2022-08-04_10h44.32.510.csv,-0.9152542372881356,4,start,1,1,0,1,1,1.5030324065196508,1,1,3,1,right,36,0,1,0,0,1,0.0,0,Won_Cached,1,1,0,0,1.0,0,400,500,53400,1.0,0,4,1,5,1
64,64,5PARTICIPANT_thisExp_2022-08-04_10h44.32.510.csv,-0.8983050847457628,5,start,1,0,1,0,1,0.2668924582442245,1,1,3,1,right,36,0,1,0,0,1,0.0,0,Lost_Cached,1,1,0,0,1.0,0,0,-200,53400,1.0,0,0,2,2,1
65,65,5PARTICIPANT_thisExp_2022-08-04_10h44.32.510.csv,-0.864406779661017,6,start,1,0,0,1,1,0.353259116637563,1,0,3,1,space,36,0,0,0,1,2,0.0,0,Won_Novel,1,0,0,0,1.0,-100,0,-300,53400,,1,0,3,3,0
66,66,5PARTICIPANT_thisExp_2022-08-04_10h44.32.510.csv,-0.7288135593220338,7,start,1,0,0,1,1,4.260001645892596,1,1,3,1,space,36,0,0,0,1,2,1.0,-1,Lost_Cached,1,0,0,0,0.0,-100,0,-300,53400,,1,0,3,3,0
67,67,5PARTICIPANT_thisExp_2022-08-04_10h44.32.510.csv,-0.6101694915254238,8,start,1,0,0,1,1,1.801264156242301,1,1,3,1,space,36,0,0,0,1,2,1.0,-1,Lost_Cached,1,0,0,0,0.0,-100,0,-300,53400,,1,0,3,3,0
68,68,5PARTICIPANT_thisExp_2022-08-04_10h44.32.510.csv,-0.5932203389830508,9,start,1,0,0,0,1,1.3958485739247024,1,1,3,1,space,36,0,0,0,1,2,1.0,-1,Lost_Cached,1,0,0,0,0.0,-100,0,-300,53400,,1,0,3,3,0
69,69,5PARTICIPANT_thisExp_2022-08-04_10h44.32.510.csv,-0.5423728813559322,10,start,1,1,0,1,1,1.0069720331129235,1,0,3,1,right,36,1,1,0,0,1,1.0,-1,Lost_Novel,1,1,0,0,0.0,0,400,400,53400,1.0,0,4,0,4,1
70,70,5PARTICIPANT_thisExp_2022-08-04_10h44.32.510.csv,-0.3389830508474576,11,start,1,0,1,1,1,-0.6341238401104843,1,0,3,1,space,36,0,0,1,1,2,0.0,0,Won_Novel,1,0,0,0,1.0,-100,0,-300,53400,,1,0,3,3,0
71,71,5PARTICIPANT_thisExp_2022-08-04_10h44.32.510.csv,-0.3220338983050847,12,start,1,0,0,0,1,0.4406391831158184,1,1,3,1,space,36,0,0,0,1,2,1.0,-1,Lost_Cached,1,0,0,0,0.0,-100,0,-300,53400,,1,0,3,3,0
72,72,5PARTICIPANT_thisExp_2022-08-04_10h44.32.510.csv,-0.2711864406779661,13,start,1,1,0,1,1,0.2902038899952903,1,0,3,1,right,36,1,1,0,0,1,1.0,-1,Lost_Novel,1,1,0,0,0.0,0,400,400,53400,1.0,0,4,0,4,1
73,73,5PARTICIPANT_thisExp_2022-08-04_10h44.32.510.csv,-0.2372881355932203,14,start,1,0,1,1,1,-1.3505411914140728,1,0,3,1,space,36,0,0,1,1,2,0.0,0,Won_Novel,1,0,0,0,1.0,-100,0,-300,53400,,1,0,3,3,0
74,74,5PARTICIPANT_thisExp_2022-08-04_10h44.32.510.csv,-0.1694915254237288,15,start,1,1,0,1,1,3.360246906666416,1,0,3,1,right,36,1,1,0,0,1,1.0,-1,Lost_Novel,1,1,0,0,0.0,0,400,400,53400,1.0,0,4,0,4,1
75,75,5PARTICIPANT_thisExp_2022-08-04_10h44.32.510.csv,-0.135593220338983,16,start,1,0,1,1,1,-2.2072749131897207,1,0,3,1,space,36,0,0,1,1,2,0.0,0,Won_Novel,1,0,0,0,1.0,-100,0,-300,53400,,1,0,3,3,0
76,76,5PARTICIPANT_thisExp_2022-08-04_10h44.32.510.csv,-0.1186440677966101,17,start,1,1,0,0,1,0.2331730869513881,1,0,3,1,right,36,1,1,0,0,1,1.0,-1,Lost_Novel,1,1,0,0,0.0,0,400,400,53400,1.0,0,4,0,4,1
77,77,5PARTICIPANT_thisExp_2022-08-04_10h44.32.510.csv,-0.0847457627118644,18,start,1,1,1,1,1,0.6670598457966268,1,1,3,1,right,36,1,1,1,0,1,0.0,0,Won_Cached,1,1,0,0,1.0,0,400,400,53400,1.0,0,4,0,4,1
78,78,5PARTICIPANT_thisExp_2022-08-04_10h44.32.510.csv,-0.0508474576271186,19,start,1,1,1,1,1,0.0516432331518383,1,1,3,1,right,36,1,1,1,0,1,0.0,0,Won_Cached,1,1,0,0,1.0,0,400,400,53400,1.0,0,4,0,4,1
79,79,5PARTICIPANT_thisExp_2022-08-04_10h44.32.510.csv,0.0,20,start,1,0,1,1,1,0.0287818014254519,1,0,3,1,space,36,0,0,1,1,2,0.0,0,Won_Novel,1,0,0,0,1.0,-100,0,-300,53400,,1,0,3,3,0
80,80,5PARTICIPANT_thisExp_2022-08-04_10h44.32.510.csv,-1.0,1,images/baby.png,2,0,0,1,1,1.8666350038731616,0,0,3,0,space,36,0,0,0,1,2,0.0,0,Won_Novel,-10,0,1,0,0.0,-100,0,-200,53400,0.0,1,0,2,2,1
81,81,5PARTICIPANT_thisExp_2022-08-04_10h44.32.510.csv,-0.9830508474576272,2,images/toothbrush.png,2,1,0,0,1,0.5024103141646435,1,0,3,0,space,36,0,0,0,1,2,1.0,-1,Lost_Novel,0,0,1,0,0.0,100,400,500,53400,1.0,1,4,1,5,0
82,82,5PARTICIPANT_thisExp_2022-08-04_10h44.32.510.csv,-0.9491525423728814,3,images/toothbrush.png,2,0,1,1,1,2.201957802376685,1,1,3,0,space,36,0,0,0,1,2,1.0,1,Lost_Cached,0,0,1,0,0.0,-100,0,-200,53400,1.0,1,0,2,2,0
83,83,5PARTICIPANT_thisExp_2022-08-04_10h44.32.510.csv,-0.9152542372881356,4,images/toothbrush.png,2,1,0,1,1,-0.9308968842635172,1,1,3,0,space,36,0,0,0,1,2,1.0,-1,Won_Cached,0,0,1,0,0.0,100,400,500,53400,1.0,1,4,1,5,0
84,84,5PARTICIPANT_thisExp_2022-08-04_10h44.32.510.csv,-0.8983050847457628,5,images/toothbrush.png,2,0,1,0,1,-1.1523295711740975,1,1,3,0,space,36,0,0,0,1,2,1.0,1,Lost_Cached,0,0,1,0,0.0,-100,0,-200,53400,1.0,1,0,2,2,0
85,85,5PARTICIPANT_thisExp_2022-08-04_10h44.32.510.csv,-0.864406779661017,6,images/baby.png,2,0,0,1,1,1.6317667579171635,0,1,3,0,space,36,0,0,0,1,2,1.0,-1,Lost_Cached,-10,0,1,0,0.0,-100,0,-300,53400,,1,0,3,3,1
86,86,5PARTICIPANT_thisExp_2022-08-04_10h44.32.510.csv,-0.7288135593220338,7,images/toothbrush.png,2,0,0,1,1,0.56815069038526,1,1,3,0,space,36,0,0,0,1,2,1.0,-1,Lost_Cached,0,0,1,0,0.0,-100,0,-300,53400,,1,0,3,3,0
87,87,5PARTICIPANT_thisExp_2022-08-04_10h44.32.510.csv,-0.6101694915254238,8,images/baby.png,2,0,0,1,1,1.0198937039567046,0,1,3,0,space,36,0,0,0,1,2,1.0,-1,Lost_Cached,-10,0,1,0,0.0,-100,0,-300,53400,,1,0,3,3,1
88,88,5PARTICIPANT_thisExp_2022-08-04_10h44.32.510.csv,-0.5932203389830508,9,images/toothbrush.png,2,0,0,0,1,1.051765235435267,1,1,3,0,space,36,0,0,0,1,2,1.0,-1,Lost_Cached,0,0,1,0,0.0,-100,0,-300,53400,,1,0,3,3,0
89,89,5PARTICIPANT_thisExp_2022-08-04_10h44.32.510.csv,-0.5423728813559322,10,images/toothbrush.png,2,1,0,1,1,0.5440089175562235,1,0,3,0,left,36,1,1,0,0,0,1.0,-1,Lost_Novel,0,1,1,0,0.0,0,400,400,53400,1.0,0,4,0,4,1
90,90,5PARTICIPANT_thisExp_2022-08-04_10h44.32.510.csv,-0.3389830508474576,11,images/baby.png,2,0,1,1,1,0.8477977354288546,0,1,3,0,space,36,0,0,1,1,2,0.0,0,Lost_Cached,-10,0,1,0,1.0,-100,0,-300,53400,,1,0,3,3,1
91,91,5PARTICIPANT_thisExp_2022-08-04_10h44.32.510.csv,-0.3220338983050847,12,images/baby.png,2,0,0,0,1,-0.1084764763360838,0,1,3,0,space,36,0,0,0,1,2,1.0,-1,Lost_Cached,-10,0,1,0,0.0,-100,0,-300,53400,,1,0,3,3,1
92,92,5PARTICIPANT_thisExp_2022-08-04_10h44.32.510.csv,-0.2711864406779661,13,images/toothbrush.png,2,1,0,1,1,-0.1960148839259572,1,1,3,0,left,36,1,1,0,0,0,1.0,-1,Won_Cached,0,1,1,0,0.0,0,400,400,53400,1.0,0,4,0,4,1
93,93,5PARTICIPANT_thisExp_2022-08-04_10h44.32.510.csv,-0.2372881355932203,14,images/baby.png,2,0,1,1,1,0.1742053761916969,0,1,3,0,space,36,0,0,1,1,2,0.0,0,Lost_Cached,-10,0,1,0,1.0,-100,0,-300,53400,,1,0,3,3,1
94,94,5PARTICIPANT_thisExp_2022-08-04_10h44.32.510.csv,-0.1694915254237288,15,images/toothbrush.png,2,1,0,1,1,0.4077957234464467,1,1,3,0,left,36,1,1,0,0,0,1.0,-1,Won_Cached,0,1,1,0,0.0,0,400,400,53400,1.0,0,4,0,4,1
95,95,5PARTICIPANT_thisExp_2022-08-04_10h44.32.510.csv,-0.135593220338983,16,images/baby.png,2,0,1,1,1,0.2280912910381433,0,1,3,0,space,36,0,0,1,1,2,0.0,0,Lost_Cached,-10,0,1,0,1.0,-100,0,-300,53400,,1,0,3,3,1
96,96,5PARTICIPANT_thisExp_2022-08-04_10h44.32.510.csv,-0.1186440677966101,17,images/toothbrush.png,2,1,0,0,1,-0.5814269309495373,1,1,3,0,left,36,1,1,0,0,0,1.0,-1,Won_Cached,0,1,1,0,0.0,0,400,400,53400,1.0,0,4,0,4,1
97,97,5PARTICIPANT_thisExp_2022-08-04_10h44.32.510.csv,-0.0847457627118644,18,images/toothbrush.png,2,1,1,1,1,-1.17215119200298,1,1,3,0,left,36,1,1,1,0,0,0.0,0,Won_Cached,0,1,1,0,1.0,0,400,400,53400,1.0,0,4,0,4,1
98,98,5PARTICIPANT_thisExp_2022-08-04_10h44.32.510.csv,-0.0508474576271186,19,images/toothbrush.png,2,1,1,1,1,-1.003756757655431,1,1,3,0,left,36,1,1,1,0,0,0.0,0,Won_Cached,0,1,1,0,1.0,0,400,400,53400,1.0,0,4,0,4,1
99,99,5PARTICIPANT_thisExp_2022-08-04_10h44.32.510.csv,0.0,20,images/baby.png,2,0,1,1,1,-0.1378837073633863,0,1,3,0,space,36,0,0,1,1,2,0.0,0,Lost_Cached,-10,0,1,0,1.0,-100,0,-300,53400,,1,0,3,3,1
100,100,5PARTICIPANT_thisExp_2022-08-04_10h44.32.510.csv,-1.0,1,images/bowtie.png,3,0,0,1,1,0.6851654108182876,0,0,3,0,space,36,0,0,0,1,2,0.0,0,Won_Novel,-10,0,1,0,0.0,-100,0,-200,53400,0.0,1,0,2,2,1
101,101,5PARTICIPANT_thisExp_2022-08-04_10h44.32.510.csv,-0.9830508474576272,2,images/car.png,3,1,0,0,1,1.6746074844171968,0,0,3,0,left,36,0,1,0,0,0,1.0,-1,Lost_Novel,0,1,1,0,0.0,0,400,500,53400,1.0,0,4,1,5,1
102,102,5PARTICIPANT_thisExp_2022-08-04_10h44.32.510.csv,-0.9491525423728814,3,images/backpack.png,3,0,1,1,1,2.670908924421528,0,0,3,0,space,36,0,0,0,1,2,0.0,0,Won_Novel,-10,0,1,0,1.0,-100,0,-200,53400,1.0,1,0,2,2,1
103,103,5PARTICIPANT_thisExp_2022-08-04_10h44.32.510.csv,-0.9152542372881356,4,images/car.png,3,1,0,1,1,0.2617486904252764,0,0,3,0,left,36,0,1,0,0,0,1.0,-1,Lost_Novel,0,1,1,0,0.0,0,400,500,53400,1.0,0,4,1,5,1
104,104,5PARTICIPANT_thisExp_2022-08-04_10h44.32.510.csv,-0.8983050847457628,5,images/backpack.png,3,0,1,0,1,0.3360435733296593,0,1,3,0,space,36,0,0,0,1,2,0.0,0,Lost_Cached,-10,0,1,0,1.0,-100,0,-200,53400,1.0,1,0,2,2,1
105,105,5PARTICIPANT_thisExp_2022-08-04_10h44.32.510.csv,-0.864406779661017,6,images/backpack.png,3,0,0,1,1,-0.5346061524313942,0,1,3,0,space,36,0,0,0,1,2,1.0,-1,Lost_Cached,-10,0,1,0,0.0,-100,0,-300,53400,,1,0,3,3,1
106,106,5PARTICIPANT_thisExp_2022-08-04_10h44.32.510.csv,-0.7288135593220338,7,images/backpack.png,3,0,0,1,1,0.2786917806136482,0,0,3,0,space,36,0,0,0,1,2,1.0,-1,Won_Novel,-10,0,1,0,0.0,-100,0,-300,53400,,1,0,3,3,1
107,107,5PARTICIPANT_thisExp_2022-08-04_10h44.32.510.csv,-0.6101694915254238,8,images/backpack.png,3,0,0,1,1,-1.3023209273437122,0,0,3,0,space,36,0,0,0,1,2,1.0,-1,Won_Novel,-10,0,1,0,0.0,-100,0,-300,53400,,1,0,3,3,1
108,108,5PARTICIPANT_thisExp_2022-08-04_10h44.32.510.csv,-0.5932203389830508,9,images/backpack.png,3,0,0,0,1,0.630899367080418,0,0,3,0,space,36,0,0,0,1,2,1.0,-1,Won_Novel,-10,0,1,0,0.0,-100,0,-300,53400,,1,0,3,3,1
109,109,5PARTICIPANT_thisExp_2022-08-04_10h44.32.510.csv,-0.5423728813559322,10,images/car.png,3,1,0,1,1,1.1722963614653836,0,1,3,0,left,36,1,1,0,0,0,1.0,-1,Won_Cached,0,1,1,0,0.0,0,400,400,53400,1.0,0,4,0,4,1
110,110,5PARTICIPANT_thisExp_2022-08-04_10h44.32.510.csv,-0.3389830508474576,11,images/bowtie.png,3,0,1,1,1,-1.8369660620661343,0,0,3,0,space,36,0,0,1,1,2,0.0,0,Won_Novel,-10,0,1,0,1.0,-100,0,-300,53400,,1,0,3,3,1
111,111,5PARTICIPANT_thisExp_2022-08-04_10h44.32.510.csv,-0.3220338983050847,12,images/bowtie.png,3,0,0,0,1,-1.720369473141382,0,0,3,0,space,36,0,0,0,1,2,1.0,-1,Won_Novel,-10,0,1,0,0.0,-100,0,-300,53400,,1,0,3,3,1
112,112,5PARTICIPANT_thisExp_2022-08-04_10h44.32.510.csv,-0.2711864406779661,13,images/car.png,3,1,0,1,1,0.8085718819753627,0,1,3,0,left,36,1,1,0,0,0,1.0,-1,Won_Cached,0,1,1,0,0.0,0,400,400,53400,1.0,0,4,0,4,1
113,113,5PARTICIPANT_thisExp_2022-08-04_10h44.32.510.csv,-0.2372881355932203,14,images/backpack.png,3,0,1,1,1,-1.9790533676485675,0,0,3,0,space,36,0,0,1,1,2,0.0,0,Won_Novel,-10,0,1,0,1.0,-100,0,-300,53400,,1,0,3,3,1
114,114,5PARTICIPANT_thisExp_2022-08-04_10h44.32.510.csv,-0.1694915254237288,15,images/car.png,3,1,0,1,1,0.1792334601947214,0,1,3,0,left,36,1,1,0,0,0,1.0,-1,Won_Cached,0,1,1,0,0.0,0,400,400,53400,1.0,0,4,0,4,1
115,115,5PARTICIPANT_thisExp_2022-08-04_10h44.32.510.csv,-0.135593220338983,16,images/bowtie.png,3,0,1,1,1,-2.1311559773665145,0,0,3,0,space,36,0,0,1,1,2,0.0,0,Won_Novel,-10,0,1,0,1.0,-100,0,-300,53400,,1,0,3,3,1
116,116,5PARTICIPANT_thisExp_2022-08-04_10h44.32.510.csv,-0.1186440677966101,17,images/car.png,3,1,0,0,1,0.3703214059725833,0,1,3,0,left,36,1,1,0,0,0,1.0,-1,Won_Cached,0,1,1,0,0.0,0,400,400,53400,1.0,0,4,0,4,1
117,117,5PARTICIPANT_thisExp_2022-08-04_10h44.32.510.csv,-0.0847457627118644,18,images/car.png,3,1,1,1,1,-1.3246349807331628,0,0,3,0,left,36,1,1,1,0,0,0.0,0,Lost_Novel,0,1,1,0,1.0,0,400,400,53400,1.0,0,4,0,4,1
118,118,5PARTICIPANT_thisExp_2022-08-04_10h44.32.510.csv,-0.0508474576271186,19,images/car.png,3,1,1,1,1,-1.980501593824932,0,1,3,0,left,36,1,1,1,0,0,0.0,0,Won_Cached,0,1,1,0,1.0,0,400,400,53400,1.0,0,4,0,4,1
119,119,5PARTICIPANT_thisExp_2022-08-04_10h44.32.510.csv,0.0,20,images/backpack.png,3,0,1,1,1,-2.0456199932043253,0,0,3,0,space,36,0,0,1,1,2,0.0,0,Won_Novel,-10,0,1,0,1.0,-100,0,-300,53400,,1,0,3,3,1
120,120,5claire_thisExp_2023-05-29_10h48.40.380.csv,-1.0,1,start,1,0,0,1,1,3.031041500656225,1,0,3,1,space,63,0,0,0,1,2,0.0,0,Won_Novel,1,0,0,0,0.0,-100,0,-200,68100,0.0,1,0,2,2,0
121,121,5claire_thisExp_2023-05-29_10h48.40.380.csv,-0.9830508474576272,2,start,1,0,0,0,1,2.56630996987006,1,0,3,1,left,63,1,1,0,0,0,1.0,-1,Won_Novel,1,1,0,0,0.0,0,0,0,68100,0.0,0,0,0,0,1
122,122,5claire_thisExp_2023-05-29_10h48.40.380.csv,-0.9491525423728814,3,start,1,1,0,1,1,2.1464107001736066,1,0,3,1,right,63,1,1,1,0,1,0.0,0,Lost_Novel,1,1,0,0,1.0,0,400,400,68100,1.0,0,4,0,4,1
123,123,5claire_thisExp_2023-05-29_10h48.40.380.csv,-0.9152542372881356,4,start,1,1,1,1,1,1.4174053561449431,1,1,3,1,right,63,1,1,1,0,1,0.0,0,Won_Cached,1,1,0,0,1.0,0,400,400,68100,1.0,0,4,0,4,1
124,124,5claire_thisExp_2023-05-29_10h48.40.380.csv,-0.8813559322033898,5,start,1,1,1,1,1,1.2650020501533863,1,1,3,1,right,63,1,1,1,0,1,0.0,0,Won_Cached,1,1,0,0,1.0,0,400,400,68100,1.0,0,4,0,4,1
125,125,5claire_thisExp_2023-05-29_10h48.40.380.csv,-0.847457627118644,6,start,1,1,1,1,1,1.0121098730447582,1,1,3,1,right,63,1,1,1,0,1,0.0,0,Won_Cached,1,1,0,0,1.0,0,400,400,68100,1.0,0,4,0,4,1
126,126,5claire_thisExp_2023-05-29_10h48.40.380.csv,-0.8135593220338984,7,start,1,1,1,1,1,0.7483453410247076,1,1,3,1,right,63,1,1,1,0,1,0.0,0,Won_Cached,1,1,0,0,1.0,0,400,400,68100,1.0,0,4,0,4,1
127,127,5claire_thisExp_2023-05-29_10h48.40.380.csv,-0.7627118644067796,8,start,1,1,1,1,1,1.2921210348526286,1,1,3,1,right,63,1,1,1,0,1,0.0,0,Won_Cached,1,1,0,0,1.0,0,400,400,68100,1.0,0,4,0,4,1
128,128,5claire_thisExp_2023-05-29_10h48.40.380.csv,-0.7457627118644068,9,start,1,1,1,0,1,0.8297737780917704,1,1,3,1,right,63,1,1,1,0,1,0.0,0,Won_Cached,1,1,0,0,1.0,0,400,400,68100,1.0,0,4,0,4,1
129,129,5claire_thisExp_2023-05-29_10h48.40.380.csv,-0.711864406779661,10,start,1,1,1,1,1,0.4650538995198219,1,1,3,1,right,63,1,1,1,0,1,0.0,0,Won_Cached,1,1,0,0,1.0,0,400,400,68100,1.0,0,4,0,4,1
130,130,5claire_thisExp_2023-05-29_10h48.40.380.csv,-0.6610169491525424,11,start,1,1,1,1,1,0.691295467196471,1,1,3,1,right,63,1,1,1,0,1,0.0,0,Won_Cached,1,1,0,0,1.0,0,400,400,68100,1.0,0,4,0,4,1
131,131,5claire_thisExp_2023-05-29_10h48.40.380.csv,-0.6440677966101694,12,start,1,1,1,0,1,0.3350426438116184,1,1,3,1,right,63,1,1,1,0,1,0.0,0,Won_Cached,1,1,0,0,1.0,0,400,400,68100,1.0,0,4,0,4,1
132,132,5claire_thisExp_2023-05-29_10h48.40.380.csv,-0.5932203389830508,13,start,1,1,1,1,1,0.7097092688589235,1,1,3,1,right,63,1,1,1,0,1,0.0,0,Won_Cached,1,1,0,0,1.0,0,400,400,68100,1.0,0,4,0,4,1
133,133,5claire_thisExp_2023-05-29_10h48.40.380.csv,-0.5423728813559322,14,start,1,1,1,1,1,0.667880653312058,1,1,3,1,right,63,1,1,1,0,1,0.0,0,Won_Cached,1,1,0,0,1.0,0,400,400,68100,1.0,0,4,0,4,1
134,134,5claire_thisExp_2023-05-29_10h48.40.380.csv,-0.4745762711864407,15,start,1,1,1,1,1,0.7289485930233286,1,1,3,1,right,63,1,1,1,0,1,0.0,0,Won_Cached,1,1,0,0,1.0,0,400,400,68100,1.0,0,4,0,4,1
135,135,5claire_thisExp_2023-05-29_10h48.40.380.csv,-0.3898305084745763,16,start,1,1,1,1,1,0.4660583568834508,1,1,3,1,right,63,1,1,1,0,1,0.0,0,Won_Cached,1,1,0,0,1.0,0,400,400,68100,1.0,0,4,0,4,1
136,136,5claire_thisExp_2023-05-29_10h48.40.380.csv,-0.3050847457627119,17,start,1,1,1,1,1,0.0920320854464937,1,1,3,1,right,63,1,1,1,0,1,0.0,0,Won_Cached,1,1,0,0,1.0,0,400,400,68100,1.0,0,4,0,4,1
137,137,5claire_thisExp_2023-05-29_10h48.40.380.csv,-0.1864406779661017,18,start,1,1,1,1,1,0.04200529414503,1,1,3,1,right,63,1,1,1,0,1,0.0,0,Won_Cached,1,1,0,0,1.0,0,400,400,68100,1.0,0,4,0,4,1
138,138,5claire_thisExp_2023-05-29_10h48.40.380.csv,-0.0847457627118644,19,start,1,1,1,1,1,-0.1408725588814155,1,1,3,1,right,63,1,1,1,0,1,0.0,0,Won_Cached,1,1,0,0,1.0,0,400,400,68100,1.0,0,4,0,4,1
139,139,5claire_thisExp_2023-05-29_10h48.40.380.csv,0.0,20,start,1,1,1,1,1,-0.1600513881482268,1,1,3,1,right,63,1,1,1,0,1,0.0,0,Won_Cached,1,1,0,0,1.0,0,400,400,68100,1.0,0,4,0,4,1
140,140,5claire_thisExp_2023-05-29_10h48.40.380.csv,-1.0,1,images/toothbrush.png,2,0,1,1,1,2.878450987000471,1,0,3,0,space,63,0,0,1,1,2,0.0,0,Won_Novel,0,0,1,0,0.0,-100,0,-200,68100,0.0,1,0,2,2,0
141,141,5claire_thisExp_2023-05-29_10h48.40.380.csv,-0.9830508474576272,2,images/baby.png,2,0,0,0,1,2.674472734836213,0,0,3,0,left,63,1,1,0,0,0,1.0,-1,Won_Novel,-10,1,1,0,0.0,0,0,0,68100,0.0,0,0,0,0,0
142,142,5claire_thisExp_2023-05-29_10h48.40.380.csv,-0.9491525423728814,3,images/toothbrush.png,2,1,0,1,1,2.223466125208085,1,0,3,0,left,63,1,1,1,0,0,0.0,0,Lost_Novel,0,1,1,0,1.0,0,400,400,68100,1.0,0,4,0,4,1
143,143,5claire_thisExp_2023-05-29_10h48.40.380.csv,-0.9152542372881356,4,images/toothbrush.png,2,1,1,1,1,0.2070954668926022,1,1,3,0,left,63,1,1,1,0,0,0.0,0,Won_Cached,0,1,1,0,1.0,0,400,400,68100,1.0,0,4,0,4,1
144,144,5claire_thisExp_2023-05-29_10h48.40.380.csv,-0.8813559322033898,5,images/toothbrush.png,2,1,1,1,1,0.6730465088529424,1,1,3,0,left,63,1,1,1,0,0,0.0,0,Won_Cached,0,1,1,0,1.0,0,400,400,68100,1.0,0,4,0,4,1
145,145,5claire_thisExp_2023-05-29_10h48.40.380.csv,-0.847457627118644,6,images/toothbrush.png,2,1,1,1,1,0.1773090149704103,1,1,3,0,left,63,1,1,1,0,0,0.0,0,Won_Cached,0,1,1,0,1.0,0,400,400,68100,1.0,0,4,0,4,1
146,146,5claire_thisExp_2023-05-29_10h48.40.380.csv,-0.8135593220338984,7,images/toothbrush.png,2,1,1,1,1,-0.1910394474136775,1,1,3,0,left,63,1,1,1,0,0,0.0,0,Won_Cached,0,1,1,0,1.0,0,400,400,68100,1.0,0,4,0,4,1
147,147,5claire_thisExp_2023-05-29_10h48.40.380.csv,-0.7627118644067796,8,images/toothbrush.png,2,1,1,1,1,-0.1876557583846565,1,1,3,0,left,63,1,1,1,0,0,0.0,0,Won_Cached,0,1,1,0,1.0,0,400,400,68100,1.0,0,4,0,4,1
148,148,5claire_thisExp_2023-05-29_10h48.40.380.csv,-0.7457627118644068,9,images/toothbrush.png,2,1,1,0,1,-0.3102003838823833,1,1,3,0,left,63,1,1,1,0,0,0.0,0,Won_Cached,0,1,1,0,1.0,0,400,400,68100,1.0,0,4,0,4,1
149,149,5claire_thisExp_2023-05-29_10h48.40.380.csv,-0.711864406779661,10,images/toothbrush.png,2,1,1,1,1,0.3765854085575139,1,1,3,0,left,63,1,1,1,0,0,0.0,0,Won_Cached,0,1,1,0,1.0,0,400,400,68100,1.0,0,4,0,4,1
150,150,5claire_thisExp_2023-05-29_10h48.40.380.csv,-0.6610169491525424,11,images/toothbrush.png,2,1,1,1,1,0.3674862901503823,1,1,3,0,left,63,1,1,1,0,0,0.0,0,Won_Cached,0,1,1,0,1.0,0,400,400,68100,1.0,0,4,0,4,1
151,151,5claire_thisExp_2023-05-29_10h48.40.380.csv,-0.6440677966101694,12,images/toothbrush.png,2,1,1,0,1,-0.2088708920274911,1,1,3,0,left,63,1,1,1,0,0,0.0,0,Won_Cached,0,1,1,0,1.0,0,400,400,68100,1.0,0,4,0,4,1
152,152,5claire_thisExp_2023-05-29_10h48.40.380.csv,-0.5932203389830508,13,images/toothbrush.png,2,1,1,1,1,-0.1510554749199558,1,1,3,0,left,63,1,1,1,0,0,0.0,0,Won_Cached,0,1,1,0,1.0,0,400,400,68100,1.0,0,4,0,4,1
153,153,5claire_thisExp_2023-05-29_10h48.40.380.csv,-0.5423728813559322,14,images/toothbrush.png,2,1,1,1,1,-0.4141527365057298,1,1,3,0,left,63,1,1,1,0,0,0.0,0,Won_Cached,0,1,1,0,1.0,0,400,400,68100,1.0,0,4,0,4,1
154,154,5claire_thisExp_2023-05-29_10h48.40.380.csv,-0.4745762711864407,15,images/toothbrush.png,2,1,1,1,1,-0.4292456367735677,1,1,3,0,left,63,1,1,1,0,0,0.0,0,Won_Cached,0,1,1,0,1.0,0,400,400,68100,1.0,0,4,0,4,1
155,155,5claire_thisExp_2023-05-29_10h48.40.380.csv,-0.3898305084745763,16,images/toothbrush.png,2,1,1,1,1,-0.1858477665705128,1,1,3,0,left,63,1,1,1,0,0,0.0,0,Won_Cached,0,1,1,0,1.0,0,400,400,68100,1.0,0,4,0,4,1
156,156,5claire_thisExp_2023-05-29_10h48.40.380.csv,-0.3050847457627119,17,images/toothbrush.png,2,1,1,1,1,-0.1799643372202764,1,1,3,0,left,63,1,1,1,0,0,0.0,0,Won_Cached,0,1,1,0,1.0,0,400,400,68100,1.0,0,4,0,4,1
157,157,5claire_thisExp_2023-05-29_10h48.40.380.csv,-0.1864406779661017,18,images/toothbrush.png,2,1,1,1,1,-1.1270117631898076,1,1,3,0,left,63,1,1,1,0,0,0.0,0,Won_Cached,0,1,1,0,1.0,0,400,400,68100,1.0,0,4,0,4,1
158,158,5claire_thisExp_2023-05-29_10h48.40.380.csv,-0.0847457627118644,19,images/toothbrush.png,2,1,1,1,1,-0.8535507020529692,1,1,3,0,left,63,1,1,1,0,0,0.0,0,Won_Cached,0,1,1,0,1.0,0,400,400,68100,1.0,0,4,0,4,1
159,159,5claire_thisExp_2023-05-29_10h48.40.380.csv,0.0,20,images/toothbrush.png,2,1,1,1,1,-0.6575870051613945,1,1,3,0,left,63,1,1,1,0,0,0.0,0,Won_Cached,0,1,1,0,1.0,0,400,400,68100,1.0,0,4,0,4,1
160,160,5claire_thisExp_2023-05-29_10h48.40.380.csv,-1.0,1,images/backpack.png,3,0,1,1,1,2.543772863766041,0,0,3,0,right,63,0,1,1,0,1,0.0,0,Won_Novel,-10,1,1,0,0.0,0,0,-200,68100,0.0,0,0,2,2,0
161,161,5claire_thisExp_2023-05-29_10h48.40.380.csv,-0.9830508474576272,2,images/backpack.png,3,0,0,0,1,2.747052941783269,0,0,3,0,left,63,1,1,0,0,0,0.0,0,Won_Novel,-10,1,1,0,1.0,0,0,0,68100,0.0,0,0,0,0,0
162,162,5claire_thisExp_2023-05-29_10h48.40.380.csv,-0.9491525423728814,3,images/car.png,3,1,0,1,1,0.3322490457769052,0,0,3,0,left,63,1,1,1,0,0,0.0,0,Lost_Novel,0,1,1,0,1.0,0,400,400,68100,1.0,0,4,0,4,1
163,163,5claire_thisExp_2023-05-29_10h48.40.380.csv,-0.9152542372881356,4,images/car.png,3,1,1,1,1,0.0920320854464937,0,0,3,0,left,63,1,1,1,0,0,0.0,0,Lost_Novel,0,1,1,0,1.0,0,400,400,68100,1.0,0,4,0,4,1
164,164,5claire_thisExp_2023-05-29_10h48.40.380.csv,-0.8813559322033898,5,images/car.png,3,1,1,1,1,-0.6102777027376507,0,0,3,0,left,63,1,1,1,0,0,0.0,0,Lost_Novel,0,1,1,0,1.0,0,400,400,68100,1.0,0,4,0,4,1
165,165,5claire_thisExp_2023-05-29_10h48.40.380.csv,-0.847457627118644,6,images/car.png,3,1,1,1,1,-0.2782599338728761,0,0,3,0,left,63,1,1,1,0,0,0.0,0,Lost_Novel,0,1,1,0,1.0,0,400,400,68100,1.0,0,4,0,4,1
166,166,5claire_thisExp_2023-05-29_10h48.40.380.csv,-0.8135593220338984,7,images/car.png,3,1,1,1,1,-0.9843019424906988,0,0,3,0,left,63,1,1,1,0,0,0.0,0,Lost_Novel,0,1,1,0,1.0,0,400,400,68100,1.0,0,4,0,4,1
167,167,5claire_thisExp_2023-05-29_10h48.40.380.csv,-0.7627118644067796,8,images/car.png,3,1,1,1,1,-1.210661792476733,0,0,3,0,left,63,1,1,1,0,0,0.0,0,Lost_Novel,0,1,1,0,1.0,0,400,400,68100,1.0,0,4,0,4,1
168,168,5claire_thisExp_2023-05-29_10h48.40.380.csv,-0.7457627118644068,9,images/car.png,3,1,1,0,1,-1.564942672547549,0,0,3,0,left,63,1,1,1,0,0,0.0,0,Lost_Novel,0,1,1,0,1.0,0,400,400,68100,1.0,0,4,0,4,1
169,169,5claire_thisExp_2023-05-29_10h48.40.380.csv,-0.711864406779661,10,images/car.png,3,1,1,1,1,-0.4027188824401392,0,0,3,0,left,63,1,1,1,0,0,0.0,0,Lost_Novel,0,1,1,0,1.0,0,400,400,68100,1.0,0,4,0,4,1
170,170,5claire_thisExp_2023-05-29_10h48.40.380.csv,-0.6610169491525424,11,images/car.png,3,1,1,1,1,-0.9490722213985346,0,0,3,0,left,63,1,1,1,0,0,0.0,0,Lost_Novel,0,1,1,0,1.0,0,400,400,68100,1.0,0,4,0,4,1
171,171,5claire_thisExp_2023-05-29_10h48.40.380.csv,-0.6440677966101694,12,images/car.png,3,1,1,0,1,-1.6204988597935253,0,0,3,0,left,63,1,1,1,0,0,0.0,0,Lost_Novel,0,1,1,0,1.0,0,400,400,68100,1.0,0,4,0,4,1
172,172,5claire_thisExp_2023-05-29_10h48.40.380.csv,-0.5932203389830508,13,images/car.png,3,1,1,1,1,-1.5154922995915725,0,0,3,0,left,63,1,1,1,0,0,0.0,0,Lost_Novel,0,1,1,0,1.0,0,400,400,68100,1.0,0,4,0,4,1
173,173,5claire_thisExp_2023-05-29_10h48.40.380.csv,-0.5423728813559322,14,images/car.png,3,1,1,1,1,-2.0317948882124828,0,0,3,0,left,63,1,1,1,0,0,0.0,0,Lost_Novel,0,1,1,0,1.0,0,400,400,68100,1.0,0,4,0,4,1
174,174,5claire_thisExp_2023-05-29_10h48.40.380.csv,-0.4745762711864407,15,images/car.png,3,1,1,1,1,-1.9965720638575413,0,0,3,0,left,63,1,1,1,0,0,0.0,0,Lost_Novel,0,1,1,0,1.0,0,400,400,68100,1.0,0,4,0,4,1
175,175,5claire_thisExp_2023-05-29_10h48.40.380.csv,-0.3898305084745763,16,images/car.png,3,1,1,1,1,-1.876011021675646,0,0,3,0,left,63,1,1,1,0,0,0.0,0,Lost_Novel,0,1,1,0,1.0,0,400,400,68100,1.0,0,4,0,4,1
176,176,5claire_thisExp_2023-05-29_10h48.40.380.csv,-0.3050847457627119,17,images/car.png,3,1,1,1,1,-1.3015856331929363,0,0,3,0,left,63,1,1,1,0,0,0.0,0,Lost_Novel,0,1,1,0,1.0,0,400,400,68100,1.0,0,4,0,4,1
177,177,5claire_thisExp_2023-05-29_10h48.40.380.csv,-0.1864406779661017,18,images/car.png,3,1,1,1,1,-1.447319062957665,0,0,3,0,left,63,1,1,1,0,0,0.0,0,Lost_Novel,0,1,1,0,1.0,0,400,400,68100,1.0,0,4,0,4,1
178,178,5claire_thisExp_2023-05-29_10h48.40.380.csv,-0.0847457627118644,19,images/car.png,3,1,1,1,1,-1.731605546408308,0,0,3,0,left,63,1,1,1,0,0,0.0,0,Lost_Novel,0,1,1,0,1.0,0,400,400,68100,1.0,0,4,0,4,1
179,179,5claire_thisExp_2023-05-29_10h48.40.380.csv,0.0,20,images/car.png,3,1,1,1,1,-1.505528449043589,0,0,3,0,left,63,1,1,1,0,0,0.0,0,Lost_Novel,0,1,1,0,1.0,0,400,400,68100,1.0,0,4,0,4,1
180,180,5PARTICIPANT_thisExp_2023-05-28_10h07.04.381.csv,-1.0,1,start,1,1,0,1,1,2.194231212798566,1,0,3,1,right,40,1,1,0,0,1,0.0,0,Lost_Novel,1,1,0,0,0.0,0,400,400,68100,1.0,0,4,0,4,1
181,181,5PARTICIPANT_thisExp_2023-05-28_10h07.04.381.csv,-0.9830508474576272,2,start,1,0,1,0,1,1.688433918660598,1,0,3,1,space,40,0,0,1,1,2,0.0,0,Won_Novel,1,0,0,0,1.0,-100,0,-300,68100,,1,0,3,3,0
182,182,5PARTICIPANT_thisExp_2023-05-28_10h07.04.381.csv,-0.9661016949152542,3,start,1,1,0,0,1,1.7743928723988558,1,0,3,1,right,40,1,1,0,0,1,1.0,-1,Lost_Novel,1,1,0,0,0.0,0,400,400,68100,1.0,0,4,0,4,1
183,183,5PARTICIPANT_thisExp_2023-05-28_10h07.04.381.csv,-0.9322033898305084,4,start,1,0,1,1,1,0.9755779892290256,1,0,3,1,space,40,0,0,1,1,2,0.0,0,Won_Novel,1,0,0,0,1.0,-100,0,-300,68100,,1,0,3,3,0
184,184,5PARTICIPANT_thisExp_2023-05-28_10h07.04.381.csv,-0.8983050847457628,5,start,1,1,0,1,1,1.003385438725089,1,0,3,1,right,40,1,1,0,0,1,1.0,-1,Lost_Novel,1,1,0,0,0.0,0,400,400,68100,1.0,0,4,0,4,1
185,185,5PARTICIPANT_thisExp_2023-05-28_10h07.04.381.csv,-0.847457627118644,6,start,1,1,1,1,1,1.248238462623922,1,1,3,1,right,40,1,1,1,0,1,0.0,0,Won_Cached,1,1,0,0,1.0,0,400,400,68100,1.0,0,4,0,4,1
186,186,5PARTICIPANT_thisExp_2023-05-28_10h07.04.381.csv,-0.8305084745762712,7,start,1,1,1,0,1,1.1296909709053735,1,1,3,1,right,40,1,1,1,0,1,0.0,0,Won_Cached,1,1,0,0,1.0,0,400,400,68100,1.0,0,4,0,4,1
187,187,5PARTICIPANT_thisExp_2023-05-28_10h07.04.381.csv,-0.7627118644067796,8,start,1,1,1,1,1,1.0324368729938107,1,1,3,1,right,40,1,1,1,0,1,0.0,0,Won_Cached,1,1,0,0,1.0,0,400,400,68100,1.0,0,4,0,4,1
188,188,5PARTICIPANT_thisExp_2023-05-28_10h07.04.381.csv,-0.7457627118644068,9,start,1,1,1,0,1,0.6622239479064352,1,1,3,1,right,40,1,1,1,0,1,0.0,0,Won_Cached,1,1,0,0,1.0,0,400,400,68100,1.0,0,4,0,4,1
189,189,5PARTICIPANT_thisExp_2023-05-28_10h07.04.381.csv,-0.6271186440677966,10,start,1,1,1,1,1,0.7828964727035534,1,1,3,1,right,40,1,1,1,0,1,0.0,0,Won_Cached,1,1,0,0,1.0,0,400,400,68100,1.0,0,4,0,4,1
190,190,5PARTICIPANT_thisExp_2023-05-28_10h07.04.381.csv,-0.3728813559322034,11,start,1,1,1,1,1,0.5445311562311618,1,1,3,1,right,40,1,1,1,0,1,0.0,0,Won_Cached,1,1,0,0,1.0,0,400,400,68100,1.0,0,4,0,4,1
191,191,5PARTICIPANT_thisExp_2023-05-28_10h07.04.381.csv,-0.3559322033898305,12,start,1,1,1,0,1,0.6233146709612645,1,1,3,1,right,40,1,1,1,0,1,0.0,0,Won_Cached,1,1,0,0,1.0,0,400,400,68100,1.0,0,4,0,4,1
192,192,5PARTICIPANT_thisExp_2023-05-28_10h07.04.381.csv,-0.3389830508474576,13,start,1,1,1,0,1,0.2688050166820918,1,1,3,1,right,40,1,1,1,0,1,0.0,0,Won_Cached,1,1,0,0,1.0,0,400,400,68100,1.0,0,4,0,4,1
193,193,5PARTICIPANT_thisExp_2023-05-28_10h07.04.381.csv,-0.2711864406779661,14,start,1,1,1,1,1,0.924139846817554,1,1,3,1,right,40,1,1,1,0,1,0.0,0,Won_Cached,1,1,0,0,1.0,0,400,400,68100,1.0,0,4,0,4,1
194,194,5PARTICIPANT_thisExp_2023-05-28_10h07.04.381.csv,-0.2542372881355932,15,start,1,1,1,0,1,0.9357011253939784,1,1,3,1,right,40,1,1,1,0,1,0.0,0,Won_Cached,1,1,0,0,1.0,0,400,400,68100,1.0,0,4,0,4,1
195,195,5PARTICIPANT_thisExp_2023-05-28_10h07.04.381.csv,-0.1016949152542373,16,start,1,1,1,1,1,0.3417440305503115,1,1,3,1,right,40,1,1,1,0,1,0.0,0,Won_Cached,1,1,0,0,1.0,0,400,400,68100,1.0,0,4,0,4,1
196,196,5PARTICIPANT_thisExp_2023-05-28_10h07.04.381.csv,-0.0677966101694915,17,start,1,1,1,1,1,0.4025274641208216,1,1,3,1,right,40,1,1,1,0,1,0.0,0,Won_Cached,1,1,0,0,1.0,0,400,400,68100,1.0,0,4,0,4,1
197,197,5PARTICIPANT_thisExp_2023-05-28_10h07.04.381.csv,-0.0338983050847457,18,start,1,1,1,1,1,0.5227739572818318,1,1,3,1,right,40,1,1,1,0,1,0.0,0,Won_Cached,1,1,0,0,1.0,0,400,400,68100,1.0,0,4,0,4,1
198,198,5PARTICIPANT_thisExp_2023-05-28_10h07.04.381.csv,-0.0169491525423728,19,start,1,1,1,0,1,0.3656148635082036,1,1,3,1,right,40,1,1,1,0,1,0.0,0,Won_Cached,1,1,0,0,1.0,0,400,400,68100,1.0,0,4,0,4,1
199,199,5PARTICIPANT_thisExp_2023-05-28_10h07.04.381.csv,0.0,20,start,1,1,1,0,1,-0.1152986243634629,1,1,3,1,right,40,1,1,1,0,1,0.0,0,Won_Cached,1,1,0,0,1.0,0,400,400,68100,1.0,0,4,0,4,1
200,200,5PARTICIPANT_thisExp_2023-05-28_10h07.04.381.csv,-1.0,1,images/toothbrush.png,2,1,1,1,1,1.8256293537356705,1,0,3,0,left,40,1,1,1,0,0,0.0,0,Lost_Novel,0,1,1,0,0.0,0,400,400,68100,1.0,0,4,0,4,1
201,201,5PARTICIPANT_thisExp_2023-05-28_10h07.04.381.csv,-0.9830508474576272,2,images/baby.png,2,0,1,0,1,2.2995204016212005,0,0,3,0,space,40,0,0,1,1,2,0.0,0,Won_Novel,-10,0,1,0,1.0,-100,0,-300,68100,,1,0,3,3,1
202,202,5PARTICIPANT_thisExp_2023-05-28_10h07.04.381.csv,-0.9661016949152542,3,images/toothbrush.png,2,1,0,0,1,0.7235308851943855,1,1,3,0,left,40,1,1,0,0,0,1.0,-1,Won_Cached,0,1,1,0,0.0,0,400,400,68100,1.0,0,4,0,4,1
203,203,5PARTICIPANT_thisExp_2023-05-28_10h07.04.381.csv,-0.9322033898305084,4,images/baby.png,2,0,1,1,1,0.6760518851313081,0,1,3,0,space,40,0,0,1,1,2,0.0,0,Lost_Cached,-10,0,1,0,1.0,-100,0,-300,68100,,1,0,3,3,1
204,204,5PARTICIPANT_thisExp_2023-05-28_10h07.04.381.csv,-0.8983050847457628,5,images/toothbrush.png,2,1,0,1,1,0.8293375350102107,1,1,3,0,left,40,1,1,0,0,0,1.0,-1,Won_Cached,0,1,1,0,0.0,0,400,400,68100,1.0,0,4,0,4,1
205,205,5PARTICIPANT_thisExp_2023-05-28_10h07.04.381.csv,-0.847457627118644,6,images/toothbrush.png,2,1,1,1,1,0.7936257991261643,1,1,3,0,left,40,1,1,1,0,0,0.0,0,Won_Cached,0,1,1,0,1.0,0,400,400,68100,1.0,0,4,0,4,1
206,206,5PARTICIPANT_thisExp_2023-05-28_10h07.04.381.csv,-0.8305084745762712,7,images/toothbrush.png,2,1,1,0,1,-0.2965210211189854,1,1,3,0,left,40,1,1,1,0,0,0.0,0,Won_Cached,0,1,1,0,1.0,0,400,400,68100,1.0,0,4,0,4,1
207,207,5PARTICIPANT_thisExp_2023-05-28_10h07.04.381.csv,-0.7627118644067796,8,images/toothbrush.png,2,1,1,1,1,0.3942019158294537,1,1,3,0,left,40,1,1,1,0,0,0.0,0,Won_Cached,0,1,1,0,1.0,0,400,400,68100,1.0,0,4,0,4,1
208,208,5PARTICIPANT_thisExp_2023-05-28_10h07.04.381.csv,-0.7457627118644068,9,images/toothbrush.png,2,1,1,0,1,0.0882855648673604,1,1,3,0,left,40,1,1,1,0,0,0.0,0,Won_Cached,0,1,1,0,1.0,0,400,400,68100,1.0,0,4,0,4,1
209,209,5PARTICIPANT_thisExp_2023-05-28_10h07.04.381.csv,-0.6271186440677966,10,images/toothbrush.png,2,1,1,1,1,0.2452181056325205,1,1,3,0,left,40,1,1,1,0,0,0.0,0,Won_Cached,0,1,1,0,1.0,0,400,400,68100,1.0,0,4,0,4,1
210,210,5PARTICIPANT_thisExp_2023-05-28_10h07.04.381.csv,-0.3728813559322034,11,images/toothbrush.png,2,1,1,1,1,0.0850761723551192,1,1,3,0,left,40,1,1,1,0,0,0.0,0,Won_Cached,0,1,1,0,1.0,0,400,400,68100,1.0,0,4,0,4,1
211,211,5PARTICIPANT_thisExp_2023-05-28_10h07.04.381.csv,-0.3559322033898305,12,images/toothbrush.png,2,1,1,0,1,-0.9190445200707762,1,1,3,0,left,40,1,1,1,0,0,0.0,0,Won_Cached,0,1,1,0,1.0,0,400,400,68100,1.0,0,4,0,4,1
212,212,5PARTICIPANT_thisExp_2023-05-28_10h07.04.381.csv,-0.3389830508474576,13,images/toothbrush.png,2,1,1,0,1,-0.947781398965526,1,1,3,0,left,40,1,1,1,0,0,0.0,0,Won_Cached,0,1,1,0,1.0,0,400,400,68100,1.0,0,4,0,4,1
213,213,5PARTICIPANT_thisExp_2023-05-28_10h07.04.381.csv,-0.2711864406779661,14,images/toothbrush.png,2,1,1,1,1,-0.0087380659432852,1,1,3,0,left,40,1,1,1,0,0,0.0,0,Won_Cached,0,1,1,0,1.0,0,400,400,68100,1.0,0,4,0,4,1
214,214,5PARTICIPANT_thisExp_2023-05-28_10h07.04.381.csv,-0.2542372881355932,15,images/toothbrush.png,2,1,1,0,1,-1.192373668482584,1,1,3,0,left,40,1,1,1,0,0,0.0,0,Won_Cached,0,1,1,0,1.0,0,400,400,68100,1.0,0,4,0,4,1
215,215,5PARTICIPANT_thisExp_2023-05-28_10h07.04.381.csv,-0.1016949152542373,16,images/toothbrush.png,2,1,1,1,1,-1.0376112671107107,1,1,3,0,left,40,1,1,1,0,0,0.0,0,Won_Cached,0,1,1,0,1.0,0,400,400,68100,1.0,0,4,0,4,1
216,216,5PARTICIPANT_thisExp_2023-05-28_10h07.04.381.csv,-0.0677966101694915,17,images/toothbrush.png,2,1,1,1,1,-0.2022385906343135,1,1,3,0,left,40,1,1,1,0,0,0.0,0,Won_Cached,0,1,1,0,1.0,0,400,400,68100,1.0,0,4,0,4,1
217,217,5PARTICIPANT_thisExp_2023-05-28_10h07.04.381.csv,-0.0338983050847457,18,images/toothbrush.png,2,1,1,1,1,0.2490451888368627,1,1,3,0,left,40,1,1,1,0,0,0.0,0,Won_Cached,0,1,1,0,1.0,0,400,400,68100,1.0,0,4,0,4,1
218,218,5PARTICIPANT_thisExp_2023-05-28_10h07.04.381.csv,-0.0169491525423728,19,images/toothbrush.png,2,1,1,0,1,-1.184497027825279,1,1,3,0,left,40,1,1,1,0,0,0.0,0,Won_Cached,0,1,1,0,1.0,0,400,400,68100,1.0,0,4,0,4,1
219,219,5PARTICIPANT_thisExp_2023-05-28_10h07.04.381.csv,0.0,20,images/toothbrush.png,2,1,1,0,1,-1.253863573939401,1,1,3,0,left,40,1,1,1,0,0,0.0,0,Won_Cached,0,1,1,0,1.0,0,400,400,68100,1.0,0,4,0,4,1
220,220,5PARTICIPANT_thisExp_2023-05-28_10h07.04.381.csv,-1.0,1,images/car.png,3,1,1,1,1,0.231270438525818,0,0,3,0,left,40,1,1,1,0,0,0.0,0,Lost_Novel,0,1,1,0,0.0,0,400,400,68100,1.0,0,4,0,4,1
221,221,5PARTICIPANT_thisExp_2023-05-28_10h07.04.381.csv,-0.9830508474576272,2,images/backpack.png,3,0,1,0,1,1.073704652961925,0,0,3,0,space,40,0,0,1,1,2,0.0,0,Won_Novel,-10,0,1,0,1.0,-100,0,-300,68100,,1,0,3,3,1
222,222,5PARTICIPANT_thisExp_2023-05-28_10h07.04.381.csv,-0.9661016949152542,3,images/car.png,3,1,0,0,1,0.4887027066782201,0,1,3,0,left,40,1,1,0,0,0,1.0,-1,Won_Cached,0,1,1,0,0.0,0,400,400,68100,1.0,0,4,0,4,1
223,223,5PARTICIPANT_thisExp_2023-05-28_10h07.04.381.csv,-0.9322033898305084,4,images/bowtie.png,3,0,1,1,1,0.9400463202285516,0,0,3,0,space,40,0,0,1,1,2,0.0,0,Won_Novel,-10,0,1,0,1.0,-100,0,-300,68100,,1,0,3,3,1
224,224,5PARTICIPANT_thisExp_2023-05-28_10h07.04.381.csv,-0.8983050847457628,5,images/car.png,3,1,0,1,1,-0.2066552338094074,0,1,3,0,left,40,1,1,0,0,0,1.0,-1,Won_Cached,0,1,1,0,0.0,0,400,400,68100,1.0,0,4,0,4,1
225,225,5PARTICIPANT_thisExp_2023-05-28_10h07.04.381.csv,-0.847457627118644,6,images/car.png,3,1,1,1,1,-0.1833220571275381,0,1,3,0,left,40,1,1,1,0,0,0.0,0,Won_Cached,0,1,1,0,1.0,0,400,400,68100,1.0,0,4,0,4,1
226,226,5PARTICIPANT_thisExp_2023-05-28_10h07.04.381.csv,-0.8305084745762712,7,images/car.png,3,1,1,0,1,0.0278097006392672,0,1,3,0,left,40,1,1,1,0,0,0.0,0,Won_Cached,0,1,1,0,1.0,0,400,400,68100,1.0,0,4,0,4,1
227,227,5PARTICIPANT_thisExp_2023-05-28_10h07.04.381.csv,-0.7627118644067796,8,images/car.png,3,1,1,1,1,-1.2917117186339429,0,0,3,0,left,40,1,1,1,0,0,0.0,0,Lost_Novel,0,1,1,0,1.0,0,400,400,68100,1.0,0,4,0,4,1
228,228,5PARTICIPANT_thisExp_2023-05-28_10h07.04.381.csv,-0.7457627118644068,9,images/car.png,3,1,1,0,1,-1.1776554960085626,0,0,3,0,left,40,1,1,1,0,0,0.0,0,Lost_Novel,0,1,1,0,1.0,0,400,400,68100,1.0,0,4,0,4,1
229,229,5PARTICIPANT_thisExp_2023-05-28_10h07.04.381.csv,-0.6271186440677966,10,images/car.png,3,1,1,1,1,-1.0876723486297752,0,0,3,0,left,40,1,1,1,0,0,0.0,0,Lost_Novel,0,1,1,0,1.0,0,400,400,68100,1.0,0,4,0,4,1
230,230,5PARTICIPANT_thisExp_2023-05-28_10h07.04.381.csv,-0.3728813559322034,11,images/car.png,3,1,1,1,1,-0.2694493041907211,0,0,3,0,left,40,1,1,1,0,0,0.0,0,Lost_Novel,0,1,1,0,1.0,0,400,400,68100,1.0,0,4,0,4,1
231,231,5PARTICIPANT_thisExp_2023-05-28_10h07.04.381.csv,-0.3559322033898305,12,images/car.png,3,1,1,0,1,-1.0535433253005315,0,0,3,0,left,40,1,1,1,0,0,0.0,0,Lost_Novel,0,1,1,0,1.0,0,400,400,68100,1.0,0,4,0,4,1
232,232,5PARTICIPANT_thisExp_2023-05-28_10h07.04.381.csv,-0.3389830508474576,13,images/car.png,3,1,1,0,1,-0.7817598389165489,0,0,3,0,left,40,1,1,1,0,0,0.0,0,Lost_Novel,0,1,1,0,1.0,0,400,400,68100,1.0,0,4,0,4,1
233,233,5PARTICIPANT_thisExp_2023-05-28_10h07.04.381.csv,-0.2711864406779661,14,images/car.png,3,1,1,1,1,-1.0056685430253718,0,1,3,0,left,40,1,1,1,0,0,0.0,0,Won_Cached,0,1,1,0,1.0,0,400,400,68100,1.0,0,4,0,4,1
234,234,5PARTICIPANT_thisExp_2023-05-28_10h07.04.381.csv,-0.2542372881355932,15,images/car.png,3,1,1,0,1,-1.652345413445377,0,1,3,0,left,40,1,1,1,0,0,0.0,0,Won_Cached,0,1,1,0,1.0,0,400,400,68100,1.0,0,4,0,4,1
235,235,5PARTICIPANT_thisExp_2023-05-28_10h07.04.381.csv,-0.1016949152542373,16,images/car.png,3,1,1,1,1,-1.2451420813640068,0,1,3,0,left,40,1,1,1,0,0,0.0,0,Won_Cached,0,1,1,0,1.0,0,400,400,68100,1.0,0,4,0,4,1
236,236,5PARTICIPANT_thisExp_2023-05-28_10h07.04.381.csv,-0.0677966101694915,17,images/car.png,3,1,1,1,1,-1.3482281603134345,0,0,3,0,left,40,1,1,1,0,0,0.0,0,Lost_Novel,0,1,1,0,1.0,0,400,400,68100,1.0,0,4,0,4,1
237,237,5PARTICIPANT_thisExp_2023-05-28_10h07.04.381.csv,-0.0338983050847457,18,images/car.png,3,1,1,1,1,-0.4222044321124625,0,0,3,0,left,40,1,1,1,0,0,0.0,0,Lost_Novel,0,1,1,0,1.0,0,400,400,68100,1.0,0,4,0,4,1
238,238,5PARTICIPANT_thisExp_2023-05-28_10h07.04.381.csv,-0.0169491525423728,19,images/car.png,3,1,1,0,1,-0.6273594400219421,0,0,3,0,left,40,1,1,1,0,0,0.0,0,Lost_Novel,0,1,1,0,1.0,0,400,400,68100,1.0,0,4,0,4,1
239,239,5PARTICIPANT_thisExp_2023-05-28_10h07.04.381.csv,0.0,20,images/car.png,3,1,1,0,1,-1.1341358447371563,0,0,3,0,left,40,1,1,1,0,0,0.0,0,Lost_Novel,0,1,1,0,1.0,0,400,400,68100,1.0,0,4,0,4,1
240,240,5dc5da21d999de45a504651b_thisExp_2023-05-28_11h20.05.097.csv,-0.9491525423728814,1,start,1,0,0,1,1,2.557514091947571,1,0,3,1,space,74,0,0,0,1,2,0.0,0,Won_Novel,1,0,0,0,0.0,-100,0,-300,69000,,1,0,3,3,0
241,241,5dc5da21d999de45a504651b_thisExp_2023-05-28_11h20.05.097.csv,-0.9152542372881356,2,start,1,0,0,1,1,2.550296371051933,1,1,3,1,space,74,0,0,0,1,2,1.0,-1,Lost_Cached,1,0,0,0,0.0,-100,0,-100,69000,0.0,1,0,1,1,0
242,242,5dc5da21d999de45a504651b_thisExp_2023-05-28_11h20.05.097.csv,-0.8983050847457628,3,start,1,1,0,0,1,2.83983256506746,1,1,3,1,space,74,0,0,0,1,2,1.0,-1,Won_Cached,1,0,0,0,0.0,100,400,500,69000,1.0,1,4,1,5,0
243,243,5dc5da21d999de45a504651b_thisExp_2023-05-28_11h20.05.097.csv,-0.7966101694915254,4,start,1,1,1,1,1,2.3898631011011062,1,0,3,1,right,74,1,1,0,0,1,1.0,1,Lost_Novel,1,1,0,0,0.0,0,400,400,69000,1.0,0,4,0,4,1
244,244,5dc5da21d999de45a504651b_thisExp_2023-05-28_11h20.05.097.csv,-0.7457627118644068,5,start,1,1,1,1,1,2.846286342353477,1,1,3,1,right,74,1,1,1,0,1,0.0,0,Won_Cached,1,1,0,0,1.0,0,400,400,69000,1.0,0,4,0,4,1
245,245,5dc5da21d999de45a504651b_thisExp_2023-05-28_11h20.05.097.csv,-0.711864406779661,6,start,1,1,1,1,1,3.1571280725767914,1,1,3,1,right,74,1,1,1,0,1,0.0,0,Won_Cached,1,1,0,0,1.0,0,400,400,69000,1.0,0,4,0,4,1
246,246,5dc5da21d999de45a504651b_thisExp_2023-05-28_11h20.05.097.csv,-0.6271186440677966,7,start,1,1,1,1,1,1.9356722054169817,1,1,3,1,right,74,1,1,1,0,1,0.0,0,Won_Cached,1,1,0,0,1.0,0,400,400,69000,1.0,0,4,0,4,1
247,247,5dc5da21d999de45a504651b_thisExp_2023-05-28_11h20.05.097.csv,-0.6101694915254238,8,start,1,1,1,0,1,3.1755131054381933,1,1,3,1,right,74,1,1,1,0,1,0.0,0,Won_Cached,1,1,0,0,1.0,0,400,400,69000,1.0,0,4,0,4,1
248,248,5dc5da21d999de45a504651b_thisExp_2023-05-28_11h20.05.097.csv,-0.5932203389830508,9,start,1,0,1,0,1,2.4659531618709125,1,0,3,1,left,74,0,1,1,0,0,0.0,0,Won_Novel,1,1,0,0,1.0,0,0,-100,69000,0.0,0,0,1,1,1
249,249,5dc5da21d999de45a504651b_thisExp_2023-05-28_11h20.05.097.csv,-0.576271186440678,10,start,1,1,0,0,1,2.2084172604625514,1,0,3,1,right,74,1,1,0,0,1,0.0,0,Lost_Novel,1,1,0,0,1.0,0,400,400,69000,1.0,0,4,0,4,1
250,250,5dc5da21d999de45a504651b_thisExp_2023-05-28_11h20.05.097.csv,-0.5423728813559322,11,start,1,1,1,1,1,2.114724222490767,1,1,3,1,right,74,1,1,1,0,1,0.0,0,Won_Cached,1,1,0,0,1.0,0,400,400,69000,1.0,0,4,0,4,1
251,251,5dc5da21d999de45a504651b_thisExp_2023-05-28_11h20.05.097.csv,-0.423728813559322,12,start,1,1,1,1,1,2.362334037399258,1,1,3,1,right,74,1,1,1,0,1,0.0,0,Won_Cached,1,1,0,0,1.0,0,400,400,69000,1.0,0,4,0,4,1
252,252,5dc5da21d999de45a504651b_thisExp_2023-05-28_11h20.05.097.csv,-0.4067796610169492,13,start,1,1,1,0,1,2.8448919418068312,1,1,3,1,right,74,1,1,1,0,1,0.0,0,Won_Cached,1,1,0,0,1.0,0,400,400,69000,1.0,0,4,0,4,1
253,253,5dc5da21d999de45a504651b_thisExp_2023-05-28_11h20.05.097.csv,-0.3898305084745763,14,start,1,1,1,0,1,2.500156444994876,1,1,3,1,right,74,1,1,1,0,1,0.0,0,Won_Cached,1,1,0,0,1.0,0,400,400,69000,1.0,0,4,0,4,1
254,254,5dc5da21d999de45a504651b_thisExp_2023-05-28_11h20.05.097.csv,-0.3389830508474576,15,start,1,1,1,1,1,1.74775533373,1,1,3,1,right,74,1,1,1,0,1,0.0,0,Won_Cached,1,1,0,0,1.0,0,400,400,69000,1.0,0,4,0,4,1
255,255,5dc5da21d999de45a504651b_thisExp_2023-05-28_11h20.05.097.csv,-0.288135593220339,16,start,1,1,1,1,1,1.932043014675111,1,1,3,1,right,74,1,1,1,0,1,0.0,0,Won_Cached,1,1,0,0,1.0,0,400,400,69000,1.0,0,4,0,4,1
256,256,5dc5da21d999de45a504651b_thisExp_2023-05-28_11h20.05.097.csv,-0.1864406779661017,17,start,1,1,1,1,1,1.8105321545513384,1,1,3,1,right,74,1,1,1,0,1,0.0,0,Won_Cached,1,1,0,0,1.0,0,400,400,69000,1.0,0,4,0,4,1
257,257,5dc5da21d999de45a504651b_thisExp_2023-05-28_11h20.05.097.csv,-0.135593220338983,18,start,1,1,1,1,1,3.2473933084265583,1,1,3,1,right,74,1,1,1,0,1,0.0,0,Won_Cached,1,1,0,0,1.0,0,400,400,69000,1.0,0,4,0,4,1
258,258,5dc5da21d999de45a504651b_thisExp_2023-05-28_11h20.05.097.csv,-0.0338983050847457,19,start,1,1,1,1,1,2.3429493827834698,1,1,3,1,right,74,1,1,1,0,1,0.0,0,Won_Cached,1,1,0,0,1.0,0,400,400,69000,1.0,0,4,0,4,1
259,259,5dc5da21d999de45a504651b_thisExp_2023-05-28_11h20.05.097.csv,0.0,20,start,1,0,1,1,1,2.298677468163029,1,0,3,1,left,74,0,1,1,0,0,0.0,0,Won_Novel,1,1,0,0,1.0,0,0,-100,69000,0.0,0,0,1,1,1
260,260,5dc5da21d999de45a504651b_thisExp_2023-05-28_11h20.05.097.csv,-0.9491525423728814,1,images/baby.png,2,0,0,1,1,2.088265000227069,0,0,3,0,space,74,0,0,0,1,2,0.0,0,Won_Novel,-10,0,1,0,0.0,-100,0,-300,69000,,1,0,3,3,1
261,261,5dc5da21d999de45a504651b_thisExp_2023-05-28_11h20.05.097.csv,-0.9152542372881356,2,images/baby.png,2,0,0,1,1,1.7604751791882889,0,0,3,0,left,74,0,1,0,0,0,1.0,-1,Won_Novel,-10,1,1,0,0.0,0,0,-100,69000,0.0,0,0,1,1,0
262,262,5dc5da21d999de45a504651b_thisExp_2023-05-28_11h20.05.097.csv,-0.8983050847457628,3,images/toothbrush.png,2,1,0,0,1,3.0245529393621844,1,0,3,0,left,74,0,1,0,0,0,0.0,0,Lost_Novel,0,1,1,0,1.0,0,400,500,69000,1.0,0,4,1,5,1
263,263,5dc5da21d999de45a504651b_thisExp_2023-05-28_11h20.05.097.csv,-0.7966101694915254,4,images/toothbrush.png,2,1,1,1,1,2.719207723798087,1,1,3,0,left,74,1,1,0,0,0,0.0,0,Won_Cached,0,1,1,0,1.0,0,400,400,69000,1.0,0,4,0,4,1
264,264,5dc5da21d999de45a504651b_thisExp_2023-05-28_11h20.05.097.csv,-0.7457627118644068,5,images/toothbrush.png,2,1,1,1,1,2.7027092971660225,1,1,3,0,left,74,1,1,1,0,0,0.0,0,Won_Cached,0,1,1,0,1.0,0,400,400,69000,1.0,0,4,0,4,1
265,265,5dc5da21d999de45a504651b_thisExp_2023-05-28_11h20.05.097.csv,-0.711864406779661,6,images/toothbrush.png,2,1,1,1,1,1.151331233000339,1,1,3,0,left,74,1,1,1,0,0,0.0,0,Won_Cached,0,1,1,0,1.0,0,400,400,69000,1.0,0,4,0,4,1
266,266,5dc5da21d999de45a504651b_thisExp_2023-05-28_11h20.05.097.csv,-0.6271186440677966,7,images/toothbrush.png,2,1,1,1,1,1.3849935153868425,1,1,3,0,left,74,1,1,1,0,0,0.0,0,Won_Cached,0,1,1,0,1.0,0,400,400,69000,1.0,0,4,0,4,1
267,267,5dc5da21d999de45a504651b_thisExp_2023-05-28_11h20.05.097.csv,-0.6101694915254238,8,images/toothbrush.png,2,1,1,0,1,1.110178475039474,1,1,3,0,left,74,1,1,1,0,0,0.0,0,Won_Cached,0,1,1,0,1.0,0,400,400,69000,1.0,0,4,0,4,1
268,268,5dc5da21d999de45a504651b_thisExp_2023-05-28_11h20.05.097.csv,-0.5932203389830508,9,images/baby.png,2,0,1,0,1,3.318007783273406,0,0,3,0,space,74,0,0,1,1,2,0.0,0,Won_Novel,-10,0,1,0,1.0,-100,0,-100,69000,0.0,1,0,1,1,1
269,269,5dc5da21d999de45a504651b_thisExp_2023-05-28_11h20.05.097.csv,-0.576271186440678,10,images/toothbrush.png,2,1,0,0,1,2.5654338554580405,1,1,3,0,left,74,1,1,0,0,0,1.0,-1,Won_Cached,0,1,1,0,0.0,0,400,400,69000,1.0,0,4,0,4,1
270,270,5dc5da21d999de45a504651b_thisExp_2023-05-28_11h20.05.097.csv,-0.5423728813559322,11,images/toothbrush.png,2,1,1,1,1,1.9027341956703496,1,1,3,0,left,74,1,1,1,0,0,0.0,0,Won_Cached,0,1,1,0,1.0,0,400,400,69000,1.0,0,4,0,4,1
271,271,5dc5da21d999de45a504651b_thisExp_2023-05-28_11h20.05.097.csv,-0.423728813559322,12,images/toothbrush.png,2,1,1,1,1,1.6353005719598277,1,1,3,0,left,74,1,1,1,0,0,0.0,0,Won_Cached,0,1,1,0,1.0,0,400,400,69000,1.0,0,4,0,4,1
272,272,5dc5da21d999de45a504651b_thisExp_2023-05-28_11h20.05.097.csv,-0.4067796610169492,13,images/toothbrush.png,2,1,1,0,1,1.973775423774844,1,1,3,0,left,74,1,1,1,0,0,0.0,0,Won_Cached,0,1,1,0,1.0,0,400,400,69000,1.0,0,4,0,4,1
273,273,5dc5da21d999de45a504651b_thisExp_2023-05-28_11h20.05.097.csv,-0.3898305084745763,14,images/toothbrush.png,2,1,1,0,1,1.6033594761136298,1,1,3,0,left,74,1,1,1,0,0,0.0,0,Won_Cached,0,1,1,0,1.0,0,400,400,69000,1.0,0,4,0,4,1
274,274,5dc5da21d999de45a504651b_thisExp_2023-05-28_11h20.05.097.csv,-0.3389830508474576,15,images/toothbrush.png,2,1,1,1,1,1.7434966659794051,1,1,3,0,left,74,1,1,1,0,0,0.0,0,Won_Cached,0,1,1,0,1.0,0,400,400,69000,1.0,0,4,0,4,1
275,275,5dc5da21d999de45a504651b_thisExp_2023-05-28_11h20.05.097.csv,-0.288135593220339,16,images/toothbrush.png,2,1,1,1,1,1.046862749866026,1,1,3,0,left,74,1,1,1,0,0,0.0,0,Won_Cached,0,1,1,0,1.0,0,400,400,69000,1.0,0,4,0,4,1
276,276,5dc5da21d999de45a504651b_thisExp_2023-05-28_11h20.05.097.csv,-0.1864406779661017,17,images/toothbrush.png,2,1,1,1,1,0.086452887730199,1,1,3,0,left,74,1,1,1,0,0,0.0,0,Won_Cached,0,1,1,0,1.0,0,400,400,69000,1.0,0,4,0,4,1
277,277,5dc5da21d999de45a504651b_thisExp_2023-05-28_11h20.05.097.csv,-0.135593220338983,18,images/toothbrush.png,2,1,1,1,1,-0.311565012915113,1,1,3,0,left,74,1,1,1,0,0,0.0,0,Won_Cached,0,1,1,0,1.0,0,400,400,69000,1.0,0,4,0,4,1
278,278,5dc5da21d999de45a504651b_thisExp_2023-05-28_11h20.05.097.csv,-0.0338983050847457,19,images/toothbrush.png,2,1,1,1,1,2.9629249505778734,1,1,3,0,left,74,1,1,1,0,0,0.0,0,Won_Cached,0,1,1,0,1.0,0,400,400,69000,1.0,0,4,0,4,1
279,279,5dc5da21d999de45a504651b_thisExp_2023-05-28_11h20.05.097.csv,0.0,20,images/baby.png,2,0,1,1,1,2.6797604599285867,0,1,3,0,space,74,0,0,1,1,2,0.0,0,Lost_Cached,-10,0,1,0,1.0,-100,0,-100,69000,0.0,1,0,1,1,1
280,280,5dc5da21d999de45a504651b_thisExp_2023-05-28_11h20.05.097.csv,-0.9491525423728814,1,images/backpack.png,3,0,0,1,1,1.675600114687769,0,0,3,0,space,74,0,0,0,1,2,0.0,0,Won_Novel,-10,0,1,0,0.0,-100,0,-300,69000,,1,0,3,3,1
281,281,5dc5da21d999de45a504651b_thisExp_2023-05-28_11h20.05.097.csv,-0.9152542372881356,2,images/backpack.png,3,0,0,1,1,1.7811028890395262,0,0,3,0,left,74,0,1,0,0,0,1.0,-1,Won_Novel,-10,1,1,0,0.0,0,0,-100,69000,0.0,0,0,1,1,0
282,282,5dc5da21d999de45a504651b_thisExp_2023-05-28_11h20.05.097.csv,-0.8983050847457628,3,images/car.png,3,1,0,0,1,2.5489997592445146,0,0,3,0,left,74,0,1,0,0,0,0.0,0,Lost_Novel,0,1,1,0,1.0,0,400,500,69000,1.0,0,4,1,5,1
283,283,5dc5da21d999de45a504651b_thisExp_2023-05-28_11h20.05.097.csv,-0.7966101694915254,4,images/car.png,3,1,1,1,1,1.957979873142644,0,0,3,0,left,74,1,1,0,0,0,0.0,0,Lost_Novel,0,1,1,0,1.0,0,400,400,69000,1.0,0,4,0,4,1
284,284,5dc5da21d999de45a504651b_thisExp_2023-05-28_11h20.05.097.csv,-0.7457627118644068,5,images/car.png,3,1,1,1,1,1.705529604959608,0,1,3,0,left,74,1,1,1,0,0,0.0,0,Won_Cached,0,1,1,0,1.0,0,400,400,69000,1.0,0,4,0,4,1
285,285,5dc5da21d999de45a504651b_thisExp_2023-05-28_11h20.05.097.csv,-0.711864406779661,6,images/car.png,3,1,1,1,1,1.0728157336240995,0,0,3,0,left,74,1,1,1,0,0,0.0,0,Lost_Novel,0,1,1,0,1.0,0,400,400,69000,1.0,0,4,0,4,1
286,286,5dc5da21d999de45a504651b_thisExp_2023-05-28_11h20.05.097.csv,-0.6271186440677966,7,images/car.png,3,1,1,1,1,1.366984112585391,0,0,3,0,left,74,1,1,1,0,0,0.0,0,Lost_Novel,0,1,1,0,1.0,0,400,400,69000,1.0,0,4,0,4,1
287,287,5dc5da21d999de45a504651b_thisExp_2023-05-28_11h20.05.097.csv,-0.6101694915254238,8,images/car.png,3,1,1,0,1,1.3990871829186429,0,0,3,0,left,74,1,1,1,0,0,0.0,0,Lost_Novel,0,1,1,0,1.0,0,400,400,69000,1.0,0,4,0,4,1
288,288,5dc5da21d999de45a504651b_thisExp_2023-05-28_11h20.05.097.csv,-0.5932203389830508,9,images/backpack.png,3,0,1,0,1,2.492709461851021,0,0,3,0,right,74,0,1,1,0,1,0.0,0,Won_Novel,-10,1,1,0,1.0,0,0,-100,69000,0.0,0,0,1,1,0
289,289,5dc5da21d999de45a504651b_thisExp_2023-05-28_11h20.05.097.csv,-0.576271186440678,10,images/car.png,3,1,0,0,1,1.0838370030859554,0,0,3,0,left,74,1,1,0,0,0,0.0,0,Lost_Novel,0,1,1,0,1.0,0,400,400,69000,1.0,0,4,0,4,1
290,290,5dc5da21d999de45a504651b_thisExp_2023-05-28_11h20.05.097.csv,-0.5423728813559322,11,images/car.png,3,1,1,1,1,1.1282358137341808,0,0,3,0,left,74,1,1,1,0,0,0.0,0,Lost_Novel,0,1,1,0,1.0,0,400,400,69000,1.0,0,4,0,4,1
291,291,5dc5da21d999de45a504651b_thisExp_2023-05-28_11h20.05.097.csv,-0.423728813559322,12,images/car.png,3,1,1,1,1,1.0260774374848614,0,0,3,0,left,74,1,1,1,0,0,0.0,0,Lost_Novel,0,1,1,0,1.0,0,400,400,69000,1.0,0,4,0,4,1
292,292,5dc5da21d999de45a504651b_thisExp_2023-05-28_11h20.05.097.csv,-0.4067796610169492,13,images/car.png,3,1,1,0,1,0.908822917026634,0,0,3,0,left,74,1,1,1,0,0,0.0,0,Lost_Novel,0,1,1,0,1.0,0,400,400,69000,1.0,0,4,0,4,1
293,293,5dc5da21d999de45a504651b_thisExp_2023-05-28_11h20.05.097.csv,-0.3898305084745763,14,images/car.png,3,1,1,0,1,1.2373882378653396,0,0,3,0,left,74,1,1,1,0,0,0.0,0,Lost_Novel,0,1,1,0,1.0,0,400,400,69000,1.0,0,4,0,4,1
294,294,5dc5da21d999de45a504651b_thisExp_2023-05-28_11h20.05.097.csv,-0.3389830508474576,15,images/car.png,3,1,1,1,1,1.0697668985542732,0,1,3,0,left,74,1,1,1,0,0,0.0,0,Won_Cached,0,1,1,0,1.0,0,400,400,69000,1.0,0,4,0,4,1
295,295,5dc5da21d999de45a504651b_thisExp_2023-05-28_11h20.05.097.csv,-0.288135593220339,16,images/car.png,3,1,1,1,1,1.0185584698217334,0,1,3,0,left,74,1,1,1,0,0,0.0,0,Won_Cached,0,1,1,0,1.0,0,400,400,69000,1.0,0,4,0,4,1
296,296,5dc5da21d999de45a504651b_thisExp_2023-05-28_11h20.05.097.csv,-0.1864406779661017,17,images/car.png,3,1,1,1,1,1.0019545346266745,0,0,3,0,left,74,1,1,1,0,0,0.0,0,Lost_Novel,0,1,1,0,1.0,0,400,400,69000,1.0,0,4,0,4,1
297,297,5dc5da21d999de45a504651b_thisExp_2023-05-28_11h20.05.097.csv,-0.135593220338983,18,images/car.png,3,1,1,1,1,1.103865134949558,0,0,3,0,left,74,1,1,1,0,0,0.0,0,Lost_Novel,0,1,1,0,1.0,0,400,400,69000,1.0,0,4,0,4,1
298,298,5dc5da21d999de45a504651b_thisExp_2023-05-28_11h20.05.097.csv,-0.0338983050847457,19,images/car.png,3,1,1,1,1,1.57802980127442,0,1,3,0,left,74,1,1,1,0,0,0.0,0,Won_Cached,0,1,1,0,1.0,0,400,400,69000,1.0,0,4,0,4,1
299,299,5dc5da21d999de45a504651b_thisExp_2023-05-28_11h20.05.097.csv,0.0,20,images/backpack.png,3,0,1,1,1,2.3434582862036253,0,0,3,0,right,74,0,1,1,0,1,0.0,0,Won_Novel,-10,1,1,0,1.0,0,0,-100,69000,0.0,0,0,1,1,0
300,300,55d22025cc2b18000c0b9d9c_thisExp_2023-05-28_10h07.02.505.csv,-1.0,1,start,1,0,0,1,1,3.205620358065751,1,0,3,1,left,33,0,1,0,0,0,0.0,0,Won_Novel,1,1,0,0,0.0,0,0,-200,76500,0.0,0,0,2,2,1
301,301,55d22025cc2b18000c0b9d9c_thisExp_2023-05-28_10h07.02.505.csv,-0.9152542372881356,2,start,1,1,0,1,1,2.819233730062825,1,0,3,1,right,33,1,1,0,0,1,0.0,0,Lost_Novel,1,1,0,0,1.0,0,400,400,76500,1.0,0,4,0,4,1
302,302,55d22025cc2b18000c0b9d9c_thisExp_2023-05-28_10h07.02.505.csv,-0.8983050847457628,3,start,1,1,1,0,1,1.510103646846177,1,1,3,1,right,33,1,1,1,0,1,0.0,0,Won_Cached,1,1,0,0,1.0,0,400,400,76500,1.0,0,4,0,4,1
303,303,55d22025cc2b18000c0b9d9c_thisExp_2023-05-28_10h07.02.505.csv,-0.847457627118644,4,start,1,1,1,1,1,1.3941385151429395,1,1,3,1,right,33,1,1,1,0,1,0.0,0,Won_Cached,1,1,0,0,1.0,0,400,400,76500,1.0,0,4,0,4,1
304,304,55d22025cc2b18000c0b9d9c_thisExp_2023-05-28_10h07.02.505.csv,-0.7288135593220338,5,start,1,1,1,1,1,2.029778496660735,1,1,3,1,right,33,1,1,1,0,1,0.0,0,Won_Cached,1,1,0,0,1.0,0,400,400,76500,1.0,0,4,0,4,1
305,305,55d22025cc2b18000c0b9d9c_thisExp_2023-05-28_10h07.02.505.csv,-0.711864406779661,6,start,1,1,1,0,1,1.113270989676769,1,1,3,1,right,33,1,1,1,0,1,0.0,0,Won_Cached,1,1,0,0,1.0,0,400,400,76500,1.0,0,4,0,4,1
306,306,55d22025cc2b18000c0b9d9c_thisExp_2023-05-28_10h07.02.505.csv,-0.6779661016949152,7,start,1,1,1,1,1,0.8061633170286486,1,1,3,1,right,33,1,1,1,0,1,0.0,0,Won_Cached,1,1,0,0,1.0,0,400,400,76500,1.0,0,4,0,4,1
307,307,55d22025cc2b18000c0b9d9c_thisExp_2023-05-28_10h07.02.505.csv,-0.6610169491525424,8,start,1,1,1,0,1,-0.0093435150031524,1,1,3,1,right,33,1,1,1,0,1,0.0,0,Won_Cached,1,1,0,0,1.0,0,400,400,76500,1.0,0,4,0,4,1
308,308,55d22025cc2b18000c0b9d9c_thisExp_2023-05-28_10h07.02.505.csv,-0.576271186440678,9,start,1,1,1,1,1,0.2530906276821619,1,1,3,1,right,33,1,1,1,0,1,0.0,0,Won_Cached,1,1,0,0,1.0,0,400,400,76500,1.0,0,4,0,4,1
309,309,55d22025cc2b18000c0b9d9c_thisExp_2023-05-28_10h07.02.505.csv,-0.559322033898305,10,start,1,1,1,0,1,1.0631232707378062,1,1,3,1,right,33,1,1,1,0,1,0.0,0,Won_Cached,1,1,0,0,1.0,0,400,400,76500,1.0,0,4,0,4,1
310,310,55d22025cc2b18000c0b9d9c_thisExp_2023-05-28_10h07.02.505.csv,-0.5254237288135594,11,start,1,1,1,1,1,1.1193948278506385,1,1,3,1,right,33,1,1,1,0,1,0.0,0,Won_Cached,1,1,0,0,1.0,0,400,400,76500,1.0,0,4,0,4,1
311,311,55d22025cc2b18000c0b9d9c_thisExp_2023-05-28_10h07.02.505.csv,-0.4915254237288136,12,start,1,1,1,1,1,0.2543320927702268,1,1,3,1,right,33,1,1,1,0,1,0.0,0,Won_Cached,1,1,0,0,1.0,0,400,400,76500,1.0,0,4,0,4,1
312,312,55d22025cc2b18000c0b9d9c_thisExp_2023-05-28_10h07.02.505.csv,-0.4576271186440678,13,start,1,1,1,1,1,2.5172044160871625,1,1,3,1,right,33,1,1,1,0,1,0.0,0,Won_Cached,1,1,0,0,1.0,0,400,400,76500,1.0,0,4,0,4,1
313,313,55d22025cc2b18000c0b9d9c_thisExp_2023-05-28_10h07.02.505.csv,-0.3898305084745763,14,start,1,1,1,1,1,0.0813034510640347,1,1,3,1,right,33,1,1,1,0,1,0.0,0,Won_Cached,1,1,0,0,1.0,0,400,400,76500,1.0,0,4,0,4,1
314,314,55d22025cc2b18000c0b9d9c_thisExp_2023-05-28_10h07.02.505.csv,-0.3559322033898305,15,start,1,1,1,1,1,-0.5471438864401024,1,1,3,1,right,33,1,1,1,0,1,0.0,0,Won_Cached,1,1,0,0,1.0,0,400,400,76500,1.0,0,4,0,4,1
315,315,55d22025cc2b18000c0b9d9c_thisExp_2023-05-28_10h07.02.505.csv,-0.2372881355932203,16,start,1,1,1,1,1,1.021587245483894,1,1,3,1,right,33,1,1,1,0,1,0.0,0,Won_Cached,1,1,0,0,1.0,0,400,400,76500,1.0,0,4,0,4,1
316,316,55d22025cc2b18000c0b9d9c_thisExp_2023-05-28_10h07.02.505.csv,-0.1694915254237288,17,start,1,1,1,1,1,0.2969143237653586,1,1,3,1,right,33,1,1,1,0,1,0.0,0,Won_Cached,1,1,0,0,1.0,0,400,400,76500,1.0,0,4,0,4,1
317,317,55d22025cc2b18000c0b9d9c_thisExp_2023-05-28_10h07.02.505.csv,-0.0847457627118644,18,start,1,1,1,1,1,-0.0593254660848147,1,1,3,1,right,33,1,1,1,0,1,0.0,0,Won_Cached,1,1,0,0,1.0,0,400,400,76500,1.0,0,4,0,4,1
318,318,55d22025cc2b18000c0b9d9c_thisExp_2023-05-28_10h07.02.505.csv,-0.0508474576271186,19,start,1,1,1,1,1,-0.0744003225762501,1,1,3,1,right,33,0,1,1,0,1,0.0,0,Won_Cached,1,1,0,0,1.0,0,400,500,76500,1.0,0,4,1,5,1
319,319,55d22025cc2b18000c0b9d9c_thisExp_2023-05-28_10h07.02.505.csv,0.0,20,start,1,1,1,1,1,0.3051289860555016,1,1,3,1,right,33,1,1,0,0,1,0.0,0,Won_Cached,1,1,0,0,1.0,0,400,400,76500,1.0,0,4,0,4,1
320,320,55d22025cc2b18000c0b9d9c_thisExp_2023-05-28_10h07.02.505.csv,-1.0,1,images/baby.png,2,0,1,1,1,2.968104106436517,0,0,3,0,space,33,0,0,1,1,2,0.0,0,Won_Novel,-10,0,1,0,0.0,-100,0,-200,76500,0.0,1,0,2,2,1
321,321,55d22025cc2b18000c0b9d9c_thisExp_2023-05-28_10h07.02.505.csv,-0.9152542372881356,2,images/toothbrush.png,2,1,0,1,1,0.7071487001957589,1,0,3,0,left,33,1,1,0,0,0,1.0,-1,Lost_Novel,0,1,1,0,0.0,0,400,400,76500,1.0,0,4,0,4,1
322,322,55d22025cc2b18000c0b9d9c_thisExp_2023-05-28_10h07.02.505.csv,-0.8983050847457628,3,images/toothbrush.png,2,1,1,0,1,0.1923543924943292,1,1,3,0,left,33,1,1,1,0,0,0.0,0,Won_Cached,0,1,1,0,1.0,0,400,400,76500,1.0,0,4,0,4,1
323,323,55d22025cc2b18000c0b9d9c_thisExp_2023-05-28_10h07.02.505.csv,-0.847457627118644,4,images/toothbrush.png,2,1,1,1,1,-0.5526898278646895,1,1,3,0,left,33,1,1,1,0,0,0.0,0,Won_Cached,0,1,1,0,1.0,0,400,400,76500,1.0,0,4,0,4,1
324,324,55d22025cc2b18000c0b9d9c_thisExp_2023-05-28_10h07.02.505.csv,-0.7288135593220338,5,images/toothbrush.png,2,1,1,1,1,-0.1790070558261249,1,1,3,0,left,33,1,1,1,0,0,0.0,0,Won_Cached,0,1,1,0,1.0,0,400,400,76500,1.0,0,4,0,4,1
325,325,55d22025cc2b18000c0b9d9c_thisExp_2023-05-28_10h07.02.505.csv,-0.711864406779661,6,images/toothbrush.png,2,1,1,0,1,-0.887460350206278,1,1,3,0,left,33,1,1,1,0,0,0.0,0,Won_Cached,0,1,1,0,1.0,0,400,400,76500,1.0,0,4,0,4,1
326,326,55d22025cc2b18000c0b9d9c_thisExp_2023-05-28_10h07.02.505.csv,-0.6779661016949152,7,images/toothbrush.png,2,1,1,1,1,-1.1344467416773258,1,1,3,0,left,33,1,1,1,0,0,0.0,0,Won_Cached,0,1,1,0,1.0,0,400,400,76500,1.0,0,4,0,4,1
327,327,55d22025cc2b18000c0b9d9c_thisExp_2023-05-28_10h07.02.505.csv,-0.6610169491525424,8,images/toothbrush.png,2,1,1,0,1,-0.9771028712709124,1,1,3,0,left,33,1,1,1,0,0,0.0,0,Won_Cached,0,1,1,0,1.0,0,400,400,76500,1.0,0,4,0,4,1
328,328,55d22025cc2b18000c0b9d9c_thisExp_2023-05-28_10h07.02.505.csv,-0.576271186440678,9,images/toothbrush.png,2,1,1,1,1,-1.1596369905058843,1,1,3,0,left,33,1,1,1,0,0,0.0,0,Won_Cached,0,1,1,0,1.0,0,400,400,76500,1.0,0,4,0,4,1
329,329,55d22025cc2b18000c0b9d9c_thisExp_2023-05-28_10h07.02.505.csv,-0.559322033898305,10,images/toothbrush.png,2,1,1,0,1,-0.5447271754416722,1,1,3,0,left,33,1,1,1,0,0,0.0,0,Won_Cached,0,1,1,0,1.0,0,400,400,76500,1.0,0,4,0,4,1
330,330,55d22025cc2b18000c0b9d9c_thisExp_2023-05-28_10h07.02.505.csv,-0.5254237288135594,11,images/toothbrush.png,2,1,1,1,1,-0.9573731769753848,1,1,3,0,left,33,1,1,1,0,0,0.0,0,Won_Cached,0,1,1,0,1.0,0,400,400,76500,1.0,0,4,0,4,1
331,331,55d22025cc2b18000c0b9d9c_thisExp_2023-05-28_10h07.02.505.csv,-0.4915254237288136,12,images/toothbrush.png,2,1,1,1,1,-1.3302921710046058,1,1,3,0,left,33,1,1,1,0,0,0.0,0,Won_Cached,0,1,1,0,1.0,0,400,400,76500,1.0,0,4,0,4,1
332,332,55d22025cc2b18000c0b9d9c_thisExp_2023-05-28_10h07.02.505.csv,-0.4576271186440678,13,images/toothbrush.png,2,1,1,1,1,-1.2837377727947985,1,1,3,0,left,33,1,1,1,0,0,0.0,0,Won_Cached,0,1,1,0,1.0,0,400,400,76500,1.0,0,4,0,4,1
333,333,55d22025cc2b18000c0b9d9c_thisExp_2023-05-28_10h07.02.505.csv,-0.3898305084745763,14,images/toothbrush.png,2,1,1,1,1,-0.2749633000440061,1,1,3,0,left,33,1,1,1,0,0,0.0,0,Won_Cached,0,1,1,0,1.0,0,400,400,76500,1.0,0,4,0,4,1
334,334,55d22025cc2b18000c0b9d9c_thisExp_2023-05-28_10h07.02.505.csv,-0.3559322033898305,15,images/toothbrush.png,2,1,1,1,1,-1.1092688688566386,1,1,3,0,left,33,1,1,1,0,0,0.0,0,Won_Cached,0,1,1,0,1.0,0,400,400,76500,1.0,0,4,0,4,1
335,335,55d22025cc2b18000c0b9d9c_thisExp_2023-05-28_10h07.02.505.csv,-0.2372881355932203,16,images/toothbrush.png,2,1,1,1,1,-0.8955081926916266,1,1,3,0,left,33,1,1,1,0,0,0.0,0,Won_Cached,0,1,1,0,1.0,0,400,400,76500,1.0,0,4,0,4,1
336,336,55d22025cc2b18000c0b9d9c_thisExp_2023-05-28_10h07.02.505.csv,-0.1694915254237288,17,images/toothbrush.png,2,1,1,1,1,-1.1233149013084816,1,1,3,0,left,33,1,1,1,0,0,0.0,0,Won_Cached,0,1,1,0,1.0,0,400,400,76500,1.0,0,4,0,4,1
337,337,55d22025cc2b18000c0b9d9c_thisExp_2023-05-28_10h07.02.505.csv,-0.0847457627118644,18,images/toothbrush.png,2,1,1,1,1,-1.4731602941415527,1,1,3,0,left,33,1,1,1,0,0,0.0,0,Won_Cached,0,1,1,0,1.0,0,400,400,76500,1.0,0,4,0,4,1
338,338,55d22025cc2b18000c0b9d9c_thisExp_2023-05-28_10h07.02.505.csv,-0.0508474576271186,19,images/toothbrush.png,2,1,1,1,1,-0.7031975164134467,1,1,3,0,left,33,0,1,1,0,0,0.0,0,Won_Cached,0,1,1,0,1.0,0,400,500,76500,1.0,0,4,1,5,1
339,339,55d22025cc2b18000c0b9d9c_thisExp_2023-05-28_10h07.02.505.csv,0.0,20,images/toothbrush.png,2,1,1,1,1,-1.5687759307152107,1,1,3,0,left,33,1,1,0,0,0,0.0,0,Won_Cached,0,1,1,0,1.0,0,400,400,76500,1.0,0,4,0,4,1
340,340,55d22025cc2b18000c0b9d9c_thisExp_2023-05-28_10h07.02.505.csv,-1.0,1,images/backpack.png,3,0,1,1,1,3.4069938827759634,0,0,3,0,space,33,0,0,1,1,2,0.0,0,Won_Novel,-10,0,1,0,0.0,-100,0,-200,76500,0.0,1,0,2,2,1
341,341,55d22025cc2b18000c0b9d9c_thisExp_2023-05-28_10h07.02.505.csv,-0.9152542372881356,2,images/car.png,3,1,0,1,1,0.0770536294422914,0,0,3,0,left,33,1,1,0,0,0,1.0,-1,Lost_Novel,0,1,1,0,0.0,0,400,400,76500,1.0,0,4,0,4,1
342,342,55d22025cc2b18000c0b9d9c_thisExp_2023-05-28_10h07.02.505.csv,-0.8983050847457628,3,images/car.png,3,1,1,0,1,-0.5744756508424468,0,0,3,0,left,33,1,1,1,0,0,0.0,0,Lost_Novel,0,1,1,0,1.0,0,400,400,76500,1.0,0,4,0,4,1
343,343,55d22025cc2b18000c0b9d9c_thisExp_2023-05-28_10h07.02.505.csv,-0.847457627118644,4,images/car.png,3,1,1,1,1,-0.8942846516115405,0,0,3,0,left,33,1,1,1,0,0,0.0,0,Lost_Novel,0,1,1,0,1.0,0,400,400,76500,1.0,0,4,0,4,1
344,344,55d22025cc2b18000c0b9d9c_thisExp_2023-05-28_10h07.02.505.csv,-0.7288135593220338,5,images/car.png,3,1,1,1,1,-0.3136154544782853,0,0,3,0,left,33,1,1,1,0,0,0.0,0,Lost_Novel,0,1,1,0,1.0,0,400,400,76500,1.0,0,4,0,4,1
345,345,55d22025cc2b18000c0b9d9c_thisExp_2023-05-28_10h07.02.505.csv,-0.711864406779661,6,images/car.png,3,1,1,0,1,-0.984837274409265,0,0,3,0,left,33,1,1,1,0,0,0.0,0,Lost_Novel,0,1,1,0,1.0,0,400,400,76500,1.0,0,4,0,4,1
346,346,55d22025cc2b18000c0b9d9c_thisExp_2023-05-28_10h07.02.505.csv,-0.6779661016949152,7,images/car.png,3,1,1,1,1,-1.468806782694355,0,0,3,0,left,33,1,1,1,0,0,0.0,0,Lost_Novel,0,1,1,0,1.0,0,400,400,76500,1.0,0,4,0,4,1
347,347,55d22025cc2b18000c0b9d9c_thisExp_2023-05-28_10h07.02.505.csv,-0.6610169491525424,8,images/car.png,3,1,1,0,1,-0.969955256459848,0,0,3,0,left,33,1,1,1,0,0,0.0,0,Lost_Novel,0,1,1,0,1.0,0,400,400,76500,1.0,0,4,0,4,1
348,348,55d22025cc2b18000c0b9d9c_thisExp_2023-05-28_10h07.02.505.csv,-0.576271186440678,9,images/car.png,3,1,1,1,1,-1.2224762758904957,0,0,3,0,left,33,1,1,1,0,0,0.0,0,Lost_Novel,0,1,1,0,1.0,0,400,400,76500,1.0,0,4,0,4,1
349,349,55d22025cc2b18000c0b9d9c_thisExp_2023-05-28_10h07.02.505.csv,-0.559322033898305,10,images/car.png,3,1,1,0,1,-0.4130941352726555,0,0,3,0,left,33,1,1,1,0,0,0.0,0,Lost_Novel,0,1,1,0,1.0,0,400,400,76500,1.0,0,4,0,4,1
350,350,55d22025cc2b18000c0b9d9c_thisExp_2023-05-28_10h07.02.505.csv,-0.5254237288135594,11,images/car.png,3,1,1,1,1,-1.0808706071919527,0,0,3,0,left,33,1,1,1,0,0,0.0,0,Lost_Novel,0,1,1,0,1.0,0,400,400,76500,1.0,0,4,0,4,1
351,351,55d22025cc2b18000c0b9d9c_thisExp_2023-05-28_10h07.02.505.csv,-0.4915254237288136,12,images/car.png,3,1,1,1,1,-1.8611095473628485,0,0,3,0,left,33,1,1,1,0,0,0.0,0,Lost_Novel,0,1,1,0,1.0,0,400,400,76500,1.0,0,4,0,4,1
352,352,55d22025cc2b18000c0b9d9c_thisExp_2023-05-28_10h07.02.505.csv,-0.4576271186440678,13,images/car.png,3,1,1,1,1,-1.8213942743577456,0,0,3,0,left,33,1,1,1,0,0,0.0,0,Lost_Novel,0,1,1,0,1.0,0,400,400,76500,1.0,0,4,0,4,1
353,353,55d22025cc2b18000c0b9d9c_thisExp_2023-05-28_10h07.02.505.csv,-0.3898305084745763,14,images/car.png,3,1,1,1,1,-1.948413279273432,0,0,3,0,left,33,1,1,1,0,0,0.0,0,Lost_Novel,0,1,1,0,1.0,0,400,400,76500,1.0,0,4,0,4,1
354,354,55d22025cc2b18000c0b9d9c_thisExp_2023-05-28_10h07.02.505.csv,-0.3559322033898305,15,images/car.png,3,1,1,1,1,-1.735001135409446,0,0,3,0,left,33,1,1,1,0,0,0.0,0,Lost_Novel,0,1,1,0,1.0,0,400,400,76500,1.0,0,4,0,4,1
355,355,55d22025cc2b18000c0b9d9c_thisExp_2023-05-28_10h07.02.505.csv,-0.2372881355932203,16,images/car.png,3,1,1,1,1,-1.2093204106525313,0,0,3,0,left,33,1,1,1,0,0,0.0,0,Lost_Novel,0,1,1,0,1.0,0,400,400,76500,1.0,0,4,0,4,1
356,356,55d22025cc2b18000c0b9d9c_thisExp_2023-05-28_10h07.02.505.csv,-0.1694915254237288,17,images/car.png,3,1,1,1,1,-1.8257299887992084,0,0,3,0,left,33,1,1,1,0,0,0.0,0,Lost_Novel,0,1,1,0,1.0,0,400,400,76500,1.0,0,4,0,4,1
357,357,55d22025cc2b18000c0b9d9c_thisExp_2023-05-28_10h07.02.505.csv,-0.0847457627118644,18,images/car.png,3,1,1,1,1,-1.6144504542576446,0,0,3,0,left,33,1,1,1,0,0,0.0,0,Lost_Novel,0,1,1,0,1.0,0,400,400,76500,1.0,0,4,0,4,1
358,358,55d22025cc2b18000c0b9d9c_thisExp_2023-05-28_10h07.02.505.csv,-0.0508474576271186,19,images/car.png,3,1,1,1,1,-0.3293377477206134,0,0,3,0,space,33,0,0,1,1,2,0.0,0,Lost_Novel,0,0,1,0,1.0,100,400,500,76500,1.0,1,4,1,5,0
359,359,55d22025cc2b18000c0b9d9c_thisExp_2023-05-28_10h07.02.505.csv,0.0,20,images/car.png,3,1,1,1,1,-1.905824425516028,0,0,3,0,left,33,1,1,0,0,0,1.0,1,Lost_Novel,0,1,1,0,0.0,0,400,400,76500,1.0,0,4,0,4,1
360,360,60c770c2798ff49897e4826a_thisExp_2023-05-28_10h06.59.843.csv,-0.9830508474576272,1,start,1,0,0,1,1,0.9966902989427256,1,0,3,1,space,80,0,0,0,1,2,0.0,0,Won_Novel,1,0,0,0,0.0,-100,0,-200,70500,0.0,1,0,2,2,0
361,361,60c770c2798ff49897e4826a_thisExp_2023-05-28_10h06.59.843.csv,-0.9491525423728814,2,start,1,0,0,1,1,0.4659956078481966,1,1,3,1,space,80,0,0,0,1,2,1.0,-1,Lost_Cached,1,0,0,0,0.0,-100,0,-200,70500,0.0,1,0,2,2,0
362,362,60c770c2798ff49897e4826a_thisExp_2023-05-28_10h06.59.843.csv,-0.864406779661017,3,start,1,0,0,1,1,0.2940865201247751,1,1,3,1,space,80,0,0,0,1,2,1.0,-1,Lost_Cached,1,0,0,0,0.0,-100,0,-200,70500,0.0,1,0,2,2,0
363,363,60c770c2798ff49897e4826a_thisExp_2023-05-28_10h06.59.843.csv,-0.847457627118644,4,start,1,1,0,0,1,1.1352656063161453,1,1,3,1,space,80,0,0,0,1,2,1.0,-1,Won_Cached,1,0,0,0,0.0,100,400,600,70500,1.0,1,4,2,6,0
364,364,60c770c2798ff49897e4826a_thisExp_2023-05-28_10h06.59.843.csv,-0.7796610169491526,5,start,1,1,1,1,1,0.8592546634908724,1,1,3,1,space,80,0,0,0,1,2,1.0,1,Won_Cached,1,0,0,0,0.0,100,400,600,70500,1.0,1,4,2,6,0
365,365,60c770c2798ff49897e4826a_thisExp_2023-05-28_10h06.59.843.csv,-0.7627118644067796,6,start,1,0,1,0,1,0.0856270859674369,1,1,3,1,space,80,0,0,0,1,2,1.0,1,Lost_Cached,1,0,0,0,0.0,-100,0,-200,70500,0.0,1,0,2,2,0
366,366,60c770c2798ff49897e4826a_thisExp_2023-05-28_10h06.59.843.csv,-0.6779661016949152,7,start,1,1,0,1,1,2.167429524967589,1,0,3,1,right,80,1,1,0,0,1,1.0,-1,Lost_Novel,1,1,0,0,0.0,0,400,400,70500,1.0,0,4,0,4,1
367,367,60c770c2798ff49897e4826a_thisExp_2023-05-28_10h06.59.843.csv,-0.5254237288135594,8,start,1,1,1,1,1,0.7614598207420326,1,1,3,1,right,80,1,1,1,0,1,0.0,0,Won_Cached,1,1,0,0,1.0,0,400,400,70500,1.0,0,4,0,4,1
368,368,60c770c2798ff49897e4826a_thisExp_2023-05-28_10h06.59.843.csv,-0.4745762711864407,9,start,1,1,1,1,1,0.6105261518716084,1,1,3,1,right,80,1,1,1,0,1,0.0,0,Won_Cached,1,1,0,0,1.0,0,400,400,70500,1.0,0,4,0,4,1
369,369,60c770c2798ff49897e4826a_thisExp_2023-05-28_10h06.59.843.csv,-0.4576271186440678,10,start,1,1,1,0,1,0.5639492420882635,1,1,3,1,right,80,1,1,1,0,1,0.0,0,Won_Cached,1,1,0,0,1.0,0,400,400,70500,1.0,0,4,0,4,1
370,370,60c770c2798ff49897e4826a_thisExp_2023-05-28_10h06.59.843.csv,-0.423728813559322,11,start,1,1,1,1,1,0.2561140029841185,1,1,3,1,right,80,1,1,1,0,1,0.0,0,Won_Cached,1,1,0,0,1.0,0,400,400,70500,1.0,0,4,0,4,1
371,371,60c770c2798ff49897e4826a_thisExp_2023-05-28_10h06.59.843.csv,-0.3898305084745763,12,start,1,1,1,1,1,0.2202593961343467,1,1,3,1,right,80,1,1,1,0,1,0.0,0,Won_Cached,1,1,0,0,1.0,0,400,400,70500,1.0,0,4,0,4,1
372,372,60c770c2798ff49897e4826a_thisExp_2023-05-28_10h06.59.843.csv,-0.3559322033898305,13,start,1,0,1,1,1,0.1239859797809911,1,0,3,1,space,80,0,0,1,1,2,0.0,0,Won_Novel,1,0,0,0,1.0,-100,0,-100,70500,0.0,1,0,1,1,0
373,373,60c770c2798ff49897e4826a_thisExp_2023-05-28_10h06.59.843.csv,-0.2203389830508474,14,start,1,1,0,1,1,1.545773675665213,1,0,3,1,right,80,1,1,0,0,1,1.0,-1,Lost_Novel,1,1,0,0,0.0,0,400,400,70500,1.0,0,4,0,4,1
374,374,60c770c2798ff49897e4826a_thisExp_2023-05-28_10h06.59.843.csv,-0.1694915254237288,15,start,1,1,1,1,1,0.482179205175869,1,1,3,1,right,80,1,1,1,0,1,0.0,0,Won_Cached,1,1,0,0,1.0,0,400,400,70500,1.0,0,4,0,4,1
375,375,60c770c2798ff49897e4826a_thisExp_2023-05-28_10h06.59.843.csv,-0.1525423728813559,16,start,1,1,1,0,1,0.2848781451190466,1,1,3,1,right,80,1,1,1,0,1,0.0,0,Won_Cached,1,1,0,0,1.0,0,400,400,70500,1.0,0,4,0,4,1
376,376,60c770c2798ff49897e4826a_thisExp_2023-05-28_10h06.59.843.csv,-0.1016949152542373,17,start,1,1,1,1,1,0.2483433523359519,1,1,3,1,right,80,1,1,1,0,1,0.0,0,Won_Cached,1,1,0,0,1.0,0,400,400,70500,1.0,0,4,0,4,1
377,377,60c770c2798ff49897e4826a_thisExp_2023-05-28_10h06.59.843.csv,-0.0847457627118644,18,start,1,1,1,0,1,-0.0272684271541937,1,1,3,1,right,80,1,1,1,0,1,0.0,0,Won_Cached,1,1,0,0,1.0,0,400,400,70500,1.0,0,4,0,4,1
378,378,60c770c2798ff49897e4826a_thisExp_2023-05-28_10h06.59.843.csv,-0.0508474576271186,19,start,1,1,1,1,1,0.2049795806865386,1,1,3,1,right,80,1,1,1,0,1,0.0,0,Won_Cached,1,1,0,0,1.0,0,400,400,70500,1.0,0,4,0,4,1
379,379,60c770c2798ff49897e4826a_thisExp_2023-05-28_10h06.59.843.csv,0.0,20,start,1,1,1,1,1,0.1691518827453122,1,1,3,1,right,80,1,1,1,0,1,0.0,0,Won_Cached,1,1,0,0,1.0,0,400,400,70500,1.0,0,4,0,4,1
380,380,60c770c2798ff49897e4826a_thisExp_2023-05-28_10h06.59.843.csv,-0.9830508474576272,1,images/baby.png,2,0,1,1,1,0.7777640262798243,0,0,3,0,space,80,0,0,1,1,2,0.0,0,Won_Novel,-10,0,1,0,0.0,-100,0,-200,70500,0.0,1,0,2,2,1
381,381,60c770c2798ff49897e4826a_thisExp_2023-05-28_10h06.59.843.csv,-0.9491525423728814,2,images/baby.png,2,0,0,1,1,-0.2975977372391573,0,1,3,0,space,80,0,0,0,1,2,1.0,-1,Lost_Cached,-10,0,1,0,0.0,-100,0,-200,70500,0.0,1,0,2,2,1
382,382,60c770c2798ff49897e4826a_thisExp_2023-05-28_10h06.59.843.csv,-0.864406779661017,3,images/baby.png,2,0,0,1,1,-1.0378935536334035,0,1,3,0,space,80,0,0,0,1,2,1.0,-1,Lost_Cached,-10,0,1,0,0.0,-100,0,-200,70500,0.0,1,0,2,2,1
383,383,60c770c2798ff49897e4826a_thisExp_2023-05-28_10h06.59.843.csv,-0.847457627118644,4,images/toothbrush.png,2,1,0,0,1,-1.1223928173335131,1,0,3,0,space,80,0,0,0,1,2,1.0,-1,Lost_Novel,0,0,1,0,0.0,100,400,600,70500,1.0,1,4,2,6,0
384,384,60c770c2798ff49897e4826a_thisExp_2023-05-28_10h06.59.843.csv,-0.7796610169491526,5,images/toothbrush.png,2,1,1,1,1,0.8681503565462201,1,1,3,0,space,80,0,0,0,1,2,1.0,1,Won_Cached,0,0,1,0,0.0,100,400,600,70500,1.0,1,4,2,6,0
385,385,60c770c2798ff49897e4826a_thisExp_2023-05-28_10h06.59.843.csv,-0.7627118644067796,6,images/toothbrush.png,2,0,1,0,1,-1.2167203771484385,1,1,3,0,space,80,0,0,0,1,2,1.0,1,Lost_Cached,0,0,1,0,0.0,-100,0,-200,70500,0.0,1,0,2,2,0
386,386,60c770c2798ff49897e4826a_thisExp_2023-05-28_10h06.59.843.csv,-0.6779661016949152,7,images/toothbrush.png,2,1,0,1,1,1.8937141917510485,1,0,3,0,left,80,1,1,0,0,0,1.0,-1,Lost_Novel,0,1,1,0,0.0,0,400,400,70500,1.0,0,4,0,4,1
387,387,60c770c2798ff49897e4826a_thisExp_2023-05-28_10h06.59.843.csv,-0.5254237288135594,8,images/toothbrush.png,2,1,1,1,1,-0.0944205756194919,1,1,3,0,left,80,1,1,1,0,0,0.0,0,Won_Cached,0,1,1,0,1.0,0,400,400,70500,1.0,0,4,0,4,1
388,388,60c770c2798ff49897e4826a_thisExp_2023-05-28_10h06.59.843.csv,-0.4745762711864407,9,images/toothbrush.png,2,1,1,1,1,-0.4998856837276563,1,1,3,0,left,80,1,1,1,0,0,0.0,0,Won_Cached,0,1,1,0,1.0,0,400,400,70500,1.0,0,4,0,4,1
389,389,60c770c2798ff49897e4826a_thisExp_2023-05-28_10h06.59.843.csv,-0.4576271186440678,10,images/toothbrush.png,2,1,1,0,1,-0.5068336024964532,1,1,3,0,left,80,1,1,1,0,0,0.0,0,Won_Cached,0,1,1,0,1.0,0,400,400,70500,1.0,0,4,0,4,1
390,390,60c770c2798ff49897e4826a_thisExp_2023-05-28_10h06.59.843.csv,-0.423728813559322,11,images/toothbrush.png,2,1,1,1,1,-0.454445290329883,1,1,3,0,left,80,1,1,1,0,0,0.0,0,Won_Cached,0,1,1,0,1.0,0,400,400,70500,1.0,0,4,0,4,1
391,391,60c770c2798ff49897e4826a_thisExp_2023-05-28_10h06.59.843.csv,-0.3898305084745763,12,images/toothbrush.png,2,1,1,1,1,-0.6778645570287883,1,1,3,0,left,80,1,1,1,0,0,0.0,0,Won_Cached,0,1,1,0,1.0,0,400,400,70500,1.0,0,4,0,4,1
392,392,60c770c2798ff49897e4826a_thisExp_2023-05-28_10h06.59.843.csv,-0.3559322033898305,13,images/baby.png,2,0,1,1,1,2.3611841352969813,0,0,3,0,right,80,0,1,1,0,1,0.0,0,Won_Novel,-10,1,1,0,1.0,0,0,-100,70500,0.0,0,0,1,1,0
393,393,60c770c2798ff49897e4826a_thisExp_2023-05-28_10h06.59.843.csv,-0.2203389830508474,14,images/toothbrush.png,2,1,0,1,1,0.5878977698408479,1,1,3,0,left,80,1,1,0,0,0,0.0,0,Won_Cached,0,1,1,0,1.0,0,400,400,70500,1.0,0,4,0,4,1
394,394,60c770c2798ff49897e4826a_thisExp_2023-05-28_10h06.59.843.csv,-0.1694915254237288,15,images/toothbrush.png,2,1,1,1,1,0.8050909787819295,1,1,3,0,left,80,1,1,1,0,0,0.0,0,Won_Cached,0,1,1,0,1.0,0,400,400,70500,1.0,0,4,0,4,1
395,395,60c770c2798ff49897e4826a_thisExp_2023-05-28_10h06.59.843.csv,-0.1525423728813559,16,images/toothbrush.png,2,1,1,0,1,0.242553944834033,1,1,3,0,left,80,1,1,1,0,0,0.0,0,Won_Cached,0,1,1,0,1.0,0,400,400,70500,1.0,0,4,0,4,1
396,396,60c770c2798ff49897e4826a_thisExp_2023-05-28_10h06.59.843.csv,-0.1016949152542373,17,images/toothbrush.png,2,1,1,1,1,-0.1065834854027834,1,1,3,0,left,80,1,1,1,0,0,0.0,0,Won_Cached,0,1,1,0,1.0,0,400,400,70500,1.0,0,4,0,4,1
397,397,60c770c2798ff49897e4826a_thisExp_2023-05-28_10h06.59.843.csv,-0.0847457627118644,18,images/toothbrush.png,2,1,1,0,1,-0.6824050840280432,1,1,3,0,left,80,1,1,1,0,0,0.0,0,Won_Cached,0,1,1,0,1.0,0,400,400,70500,1.0,0,4,0,4,1
398,398,60c770c2798ff49897e4826a_thisExp_2023-05-28_10h06.59.843.csv,-0.0508474576271186,19,images/toothbrush.png,2,1,1,1,1,-0.4257188371354324,1,1,3,0,left,80,1,1,1,0,0,0.0,0,Won_Cached,0,1,1,0,1.0,0,400,400,70500,1.0,0,4,0,4,1
399,399,60c770c2798ff49897e4826a_thisExp_2023-05-28_10h06.59.843.csv,0.0,20,images/toothbrush.png,2,1,1,1,1,-0.789878369519717,1,1,3,0,left,80,1,1,1,0,0,0.0,0,Won_Cached,0,1,1,0,1.0,0,400,400,70500,1.0,0,4,0,4,1
400,400,60c770c2798ff49897e4826a_thisExp_2023-05-28_10h06.59.843.csv,-0.9830508474576272,1,images/backpack.png,3,0,1,1,1,2.792734427932739,0,0,3,0,left,80,0,1,1,0,0,0.0,0,Won_Novel,-10,1,1,0,0.0,0,0,-200,70500,0.0,0,0,2,2,0
401,401,60c770c2798ff49897e4826a_thisExp_2023-05-28_10h06.59.843.csv,-0.9491525423728814,2,images/bowtie.png,3,0,0,1,1,2.325275702913744,0,0,3,0,right,80,0,1,0,0,1,0.0,0,Won_Novel,-10,1,1,0,1.0,0,0,-200,70500,0.0,0,0,2,2,0
402,402,60c770c2798ff49897e4826a_thisExp_2023-05-28_10h06.59.843.csv,-0.864406779661017,3,images/bowtie.png,3,0,0,1,1,1.744388297812037,0,1,3,0,right,80,0,1,0,0,1,0.0,0,Lost_Cached,-10,1,1,0,1.0,0,0,-200,70500,0.0,0,0,2,2,0
403,403,60c770c2798ff49897e4826a_thisExp_2023-05-28_10h06.59.843.csv,-0.847457627118644,4,images/car.png,3,1,0,0,1,0.2542545463392625,0,0,3,0,left,80,0,1,0,0,0,0.0,0,Lost_Novel,0,1,1,0,1.0,0,400,600,70500,1.0,0,4,2,6,1
404,404,60c770c2798ff49897e4826a_thisExp_2023-05-28_10h06.59.843.csv,-0.7796610169491526,5,images/car.png,3,1,1,1,1,0.3447238128189779,0,0,3,0,left,80,0,1,0,0,0,0.0,0,Lost_Novel,0,1,1,0,1.0,0,400,600,70500,1.0,0,4,2,6,1
405,405,60c770c2798ff49897e4826a_thisExp_2023-05-28_10h06.59.843.csv,-0.7627118644067796,6,images/backpack.png,3,0,1,0,1,2.311980814634408,0,0,3,0,left,80,0,1,0,0,0,0.0,0,Won_Novel,-10,1,1,0,1.0,0,0,-200,70500,0.0,0,0,2,2,0
406,406,60c770c2798ff49897e4826a_thisExp_2023-05-28_10h06.59.843.csv,-0.6779661016949152,7,images/car.png,3,1,0,1,1,0.850065455631364,0,0,3,0,left,80,1,1,0,0,0,0.0,0,Lost_Novel,0,1,1,0,1.0,0,400,400,70500,1.0,0,4,0,4,1
407,407,60c770c2798ff49897e4826a_thisExp_2023-05-28_10h06.59.843.csv,-0.5254237288135594,8,images/car.png,3,1,1,1,1,-0.6380909748118669,0,0,3,0,left,80,1,1,1,0,0,0.0,0,Lost_Novel,0,1,1,0,1.0,0,400,400,70500,1.0,0,4,0,4,1
408,408,60c770c2798ff49897e4826a_thisExp_2023-05-28_10h06.59.843.csv,-0.4745762711864407,9,images/car.png,3,1,1,1,1,-0.7778339887271393,0,0,3,0,left,80,1,1,1,0,0,0.0,0,Lost_Novel,0,1,1,0,1.0,0,400,400,70500,1.0,0,4,0,4,1
409,409,60c770c2798ff49897e4826a_thisExp_2023-05-28_10h06.59.843.csv,-0.4576271186440678,10,images/car.png,3,1,1,0,1,-0.5335826108886068,0,0,3,0,left,80,1,1,1,0,0,0.0,0,Lost_Novel,0,1,1,0,1.0,0,400,400,70500,1.0,0,4,0,4,1
410,410,60c770c2798ff49897e4826a_thisExp_2023-05-28_10h06.59.843.csv,-0.423728813559322,11,images/car.png,3,1,1,1,1,-1.144132803969919,0,1,3,0,left,80,1,1,1,0,0,0.0,0,Won_Cached,0,1,1,0,1.0,0,400,400,70500,1.0,0,4,0,4,1
411,411,60c770c2798ff49897e4826a_thisExp_2023-05-28_10h06.59.843.csv,-0.3898305084745763,12,images/car.png,3,1,1,1,1,-1.0078579253996456,0,1,3,0,left,80,1,1,1,0,0,0.0,0,Won_Cached,0,1,1,0,1.0,0,400,400,70500,1.0,0,4,0,4,1
412,412,60c770c2798ff49897e4826a_thisExp_2023-05-28_10h06.59.843.csv,-0.3559322033898305,13,images/bowtie.png,3,0,1,1,1,-1.5361874506945077,0,0,3,0,right,80,0,1,1,0,1,0.0,0,Won_Novel,-10,1,1,0,1.0,0,0,-100,70500,0.0,0,0,1,1,0
413,413,60c770c2798ff49897e4826a_thisExp_2023-05-28_10h06.59.843.csv,-0.2203389830508474,14,images/car.png,3,1,0,1,1,0.4262476472906929,0,0,3,0,left,80,1,1,0,0,0,0.0,0,Lost_Novel,0,1,1,0,1.0,0,400,400,70500,1.0,0,4,0,4,1
414,414,60c770c2798ff49897e4826a_thisExp_2023-05-28_10h06.59.843.csv,-0.1694915254237288,15,images/car.png,3,1,1,1,1,-0.9215545615492542,0,0,3,0,left,80,1,1,1,0,0,0.0,0,Lost_Novel,0,1,1,0,1.0,0,400,400,70500,1.0,0,4,0,4,1
415,415,60c770c2798ff49897e4826a_thisExp_2023-05-28_10h06.59.843.csv,-0.1525423728813559,16,images/car.png,3,1,1,0,1,-1.1494846190418662,0,0,3,0,left,80,1,1,1,0,0,0.0,0,Lost_Novel,0,1,1,0,1.0,0,400,400,70500,1.0,0,4,0,4,1
416,416,60c770c2798ff49897e4826a_thisExp_2023-05-28_10h06.59.843.csv,-0.1016949152542373,17,images/car.png,3,1,1,1,1,-0.52678564334472,0,0,3,0,left,80,1,1,1,0,0,0.0,0,Lost_Novel,0,1,1,0,1.0,0,400,400,70500,1.0,0,4,0,4,1
417,417,60c770c2798ff49897e4826a_thisExp_2023-05-28_10h06.59.843.csv,-0.0847457627118644,18,images/car.png,3,1,1,0,1,-0.9395593588135094,0,0,3,0,left,80,1,1,1,0,0,0.0,0,Lost_Novel,0,1,1,0,1.0,0,400,400,70500,1.0,0,4,0,4,1
418,418,60c770c2798ff49897e4826a_thisExp_2023-05-28_10h06.59.843.csv,-0.0508474576271186,19,images/car.png,3,1,1,1,1,-1.1141321003261466,0,0,3,0,left,80,1,1,1,0,0,0.0,0,Lost_Novel,0,1,1,0,1.0,0,400,400,70500,1.0,0,4,0,4,1
419,419,60c770c2798ff49897e4826a_thisExp_2023-05-28_10h06.59.843.csv,0.0,20,images/car.png,3,1,1,1,1,-1.2496677635880655,0,0,3,0,left,80,1,1,1,0,0,0.0,0,Lost_Novel,0,1,1,0,1.0,0,400,400,70500,1.0,0,4,0,4,1
420,420,63ed0ffba76a3fb9dfe6dbdb_thisExp_2023-05-28_10h46.07.233.csv,-1.0,1,start,1,1,0,1,1,2.19150827034011,1,0,3,1,right,59,0,1,0,0,1,0.0,0,Lost_Novel,1,1,0,0,0.0,0,400,500,72900,1.0,0,4,1,5,1
421,421,63ed0ffba76a3fb9dfe6dbdb_thisExp_2023-05-28_10h46.07.233.csv,-0.9830508474576272,2,start,1,0,1,0,1,1.6361187910154311,1,1,3,1,right,59,0,1,0,0,1,0.0,0,Lost_Cached,1,1,0,0,1.0,0,0,-200,72900,1.0,0,0,2,2,1
422,422,63ed0ffba76a3fb9dfe6dbdb_thisExp_2023-05-28_10h46.07.233.csv,-0.9322033898305084,3,start,1,1,0,1,1,1.7661681195611458,1,1,3,1,right,59,1,1,0,0,1,0.0,0,Won_Cached,1,1,0,0,1.0,0,400,400,72900,1.0,0,4,0,4,1
423,423,63ed0ffba76a3fb9dfe6dbdb_thisExp_2023-05-28_10h46.07.233.csv,-0.847457627118644,4,start,1,1,1,1,1,2.044086347771144,1,1,3,1,right,59,1,1,1,0,1,0.0,0,Won_Cached,1,1,0,0,1.0,0,400,400,72900,1.0,0,4,0,4,1
424,424,63ed0ffba76a3fb9dfe6dbdb_thisExp_2023-05-28_10h46.07.233.csv,-0.8305084745762712,5,start,1,1,1,0,1,1.643259460909611,1,1,3,1,right,59,1,1,1,0,1,0.0,0,Won_Cached,1,1,0,0,1.0,0,400,400,72900,1.0,0,4,0,4,1
425,425,63ed0ffba76a3fb9dfe6dbdb_thisExp_2023-05-28_10h46.07.233.csv,-0.7966101694915254,6,start,1,1,1,1,1,1.92960653592018,1,1,3,1,right,59,1,1,1,0,1,0.0,0,Won_Cached,1,1,0,0,1.0,0,400,400,72900,1.0,0,4,0,4,1
426,426,63ed0ffba76a3fb9dfe6dbdb_thisExp_2023-05-28_10h46.07.233.csv,-0.7627118644067796,7,start,1,1,1,1,1,0.5918893484857183,1,1,3,1,right,59,1,1,1,0,1,0.0,0,Won_Cached,1,1,0,0,1.0,0,400,400,72900,1.0,0,4,0,4,1
427,427,63ed0ffba76a3fb9dfe6dbdb_thisExp_2023-05-28_10h46.07.233.csv,-0.7457627118644068,8,start,1,1,1,0,1,1.0509265144355495,1,1,3,1,right,59,1,1,1,0,1,0.0,0,Won_Cached,1,1,0,0,1.0,0,400,400,72900,1.0,0,4,0,4,1
428,428,63ed0ffba76a3fb9dfe6dbdb_thisExp_2023-05-28_10h46.07.233.csv,-0.6949152542372882,9,start,1,1,1,1,1,1.044965349437334,1,1,3,1,right,59,1,1,1,0,1,0.0,0,Won_Cached,1,1,0,0,1.0,0,400,400,72900,1.0,0,4,0,4,1
429,429,63ed0ffba76a3fb9dfe6dbdb_thisExp_2023-05-28_10h46.07.233.csv,-0.6440677966101694,10,start,1,1,1,1,1,0.9065231843151028,1,1,3,1,right,59,1,1,1,0,1,0.0,0,Won_Cached,1,1,0,0,1.0,0,400,400,72900,1.0,0,4,0,4,1
430,430,63ed0ffba76a3fb9dfe6dbdb_thisExp_2023-05-28_10h46.07.233.csv,-0.6271186440677966,11,start,1,1,1,0,1,0.4338581826093822,1,1,3,1,right,59,1,1,1,0,1,0.0,0,Won_Cached,1,1,0,0,1.0,0,400,400,72900,1.0,0,4,0,4,1
431,431,63ed0ffba76a3fb9dfe6dbdb_thisExp_2023-05-28_10h46.07.233.csv,-0.6101694915254238,12,start,1,1,1,0,1,0.4284000793906602,1,1,3,1,right,59,1,1,1,0,1,0.0,0,Won_Cached,1,1,0,0,1.0,0,400,400,72900,1.0,0,4,0,4,1
432,432,63ed0ffba76a3fb9dfe6dbdb_thisExp_2023-05-28_10h46.07.233.csv,-0.576271186440678,13,start,1,1,1,1,1,0.54609623784791,1,1,3,1,right,59,1,1,1,0,1,0.0,0,Won_Cached,1,1,0,0,1.0,0,400,400,72900,1.0,0,4,0,4,1
433,433,63ed0ffba76a3fb9dfe6dbdb_thisExp_2023-05-28_10h46.07.233.csv,-0.4915254237288136,14,start,1,1,1,1,1,1.4800123649936423,1,1,3,1,right,59,1,1,1,0,1,0.0,0,Won_Cached,1,1,0,0,1.0,0,400,400,72900,1.0,0,4,0,4,1
434,434,63ed0ffba76a3fb9dfe6dbdb_thisExp_2023-05-28_10h46.07.233.csv,-0.4745762711864407,15,start,1,1,1,0,1,1.0925271450121616,1,1,3,1,right,59,1,1,1,0,1,0.0,0,Won_Cached,1,1,0,0,1.0,0,400,400,72900,1.0,0,4,0,4,1
435,435,63ed0ffba76a3fb9dfe6dbdb_thisExp_2023-05-28_10h46.07.233.csv,-0.3898305084745763,16,start,1,1,1,1,1,0.3721151284266103,1,1,3,1,right,59,1,1,1,0,1,0.0,0,Won_Cached,1,1,0,0,1.0,0,400,400,72900,1.0,0,4,0,4,1
436,436,63ed0ffba76a3fb9dfe6dbdb_thisExp_2023-05-28_10h46.07.233.csv,-0.3728813559322034,17,start,1,1,1,0,1,0.336972111662864,1,1,3,1,right,59,1,1,1,0,1,0.0,0,Won_Cached,1,1,0,0,1.0,0,400,400,72900,1.0,0,4,0,4,1
437,437,63ed0ffba76a3fb9dfe6dbdb_thisExp_2023-05-28_10h46.07.233.csv,-0.1694915254237288,18,start,1,1,1,1,1,0.9815165167918624,1,1,3,1,right,59,1,1,1,0,1,0.0,0,Won_Cached,1,1,0,0,1.0,0,400,400,72900,1.0,0,4,0,4,1
438,438,63ed0ffba76a3fb9dfe6dbdb_thisExp_2023-05-28_10h46.07.233.csv,-0.135593220338983,19,start,1,1,1,1,1,0.6442720127778087,1,1,3,1,right,59,1,1,1,0,1,0.0,0,Won_Cached,1,1,0,0,1.0,0,400,400,72900,1.0,0,4,0,4,1
439,439,63ed0ffba76a3fb9dfe6dbdb_thisExp_2023-05-28_10h46.07.233.csv,-0.0508474576271186,20,start,1,1,1,1,1,0.4884573079039823,1,1,3,1,right,59,1,1,1,0,1,0.0,0,Won_Cached,1,1,0,0,1.0,0,400,400,72900,1.0,0,4,0,4,1
440,440,63ed0ffba76a3fb9dfe6dbdb_thisExp_2023-05-28_10h46.07.233.csv,-1.0,1,images/toothbrush.png,2,1,1,1,1,2.5314323472249334,1,0,3,0,space,59,0,0,1,1,2,0.0,0,Lost_Novel,0,0,1,0,0.0,100,400,500,72900,1.0,1,4,1,5,0
441,441,63ed0ffba76a3fb9dfe6dbdb_thisExp_2023-05-28_10h46.07.233.csv,-0.9830508474576272,2,images/toothbrush.png,2,0,1,0,1,1.2538195529704923,1,1,3,0,space,59,0,0,0,1,2,1.0,1,Lost_Cached,0,0,1,0,0.0,-100,0,-200,72900,1.0,1,0,2,2,0
442,442,63ed0ffba76a3fb9dfe6dbdb_thisExp_2023-05-28_10h46.07.233.csv,-0.9322033898305084,3,images/toothbrush.png,2,1,0,1,1,1.5665930399417842,1,0,3,0,left,59,1,1,0,0,0,1.0,-1,Lost_Novel,0,1,1,0,0.0,0,400,400,72900,1.0,0,4,0,4,1
443,443,63ed0ffba76a3fb9dfe6dbdb_thisExp_2023-05-28_10h46.07.233.csv,-0.847457627118644,4,images/toothbrush.png,2,1,1,1,1,1.4563799686865784,1,1,3,0,left,59,1,1,1,0,0,0.0,0,Won_Cached,0,1,1,0,1.0,0,400,400,72900,1.0,0,4,0,4,1
444,444,63ed0ffba76a3fb9dfe6dbdb_thisExp_2023-05-28_10h46.07.233.csv,-0.8305084745762712,5,images/toothbrush.png,2,1,1,0,1,0.1246924439573183,1,1,3,0,left,59,1,1,1,0,0,0.0,0,Won_Cached,0,1,1,0,1.0,0,400,400,72900,1.0,0,4,0,4,1
445,445,63ed0ffba76a3fb9dfe6dbdb_thisExp_2023-05-28_10h46.07.233.csv,-0.7966101694915254,6,images/toothbrush.png,2,1,1,1,1,0.3882511273734764,1,1,3,0,left,59,1,1,1,0,0,0.0,0,Won_Cached,0,1,1,0,1.0,0,400,400,72900,1.0,0,4,0,4,1
446,446,63ed0ffba76a3fb9dfe6dbdb_thisExp_2023-05-28_10h46.07.233.csv,-0.7627118644067796,7,images/toothbrush.png,2,1,1,1,1,0.1641575861662833,1,1,3,0,left,59,1,1,1,0,0,0.0,0,Won_Cached,0,1,1,0,1.0,0,400,400,72900,1.0,0,4,0,4,1
447,447,63ed0ffba76a3fb9dfe6dbdb_thisExp_2023-05-28_10h46.07.233.csv,-0.7457627118644068,8,images/toothbrush.png,2,1,1,0,1,1.394163319498586,1,1,3,0,left,59,1,1,1,0,0,0.0,0,Won_Cached,0,1,1,0,1.0,0,400,400,72900,1.0,0,4,0,4,1
448,448,63ed0ffba76a3fb9dfe6dbdb_thisExp_2023-05-28_10h46.07.233.csv,-0.6949152542372882,9,images/toothbrush.png,2,1,1,1,1,-0.1720940366385187,1,1,3,0,left,59,1,1,1,0,0,0.0,0,Won_Cached,0,1,1,0,1.0,0,400,400,72900,1.0,0,4,0,4,1
449,449,63ed0ffba76a3fb9dfe6dbdb_thisExp_2023-05-28_10h46.07.233.csv,-0.6440677966101694,10,images/toothbrush.png,2,1,1,1,1,0.767790723555711,1,1,3,0,left,59,1,1,1,0,0,0.0,0,Won_Cached,0,1,1,0,1.0,0,400,400,72900,1.0,0,4,0,4,1
450,450,63ed0ffba76a3fb9dfe6dbdb_thisExp_2023-05-28_10h46.07.233.csv,-0.6271186440677966,11,images/toothbrush.png,2,1,1,0,1,-0.984837274409265,1,1,3,0,left,59,1,1,1,0,0,0.0,0,Won_Cached,0,1,1,0,1.0,0,400,400,72900,1.0,0,4,0,4,1
451,451,63ed0ffba76a3fb9dfe6dbdb_thisExp_2023-05-28_10h46.07.233.csv,-0.6101694915254238,12,images/toothbrush.png,2,1,1,0,1,-0.8528465593176202,1,1,3,0,left,59,1,1,1,0,0,0.0,0,Won_Cached,0,1,1,0,1.0,0,400,400,72900,1.0,0,4,0,4,1
452,452,63ed0ffba76a3fb9dfe6dbdb_thisExp_2023-05-28_10h46.07.233.csv,-0.576271186440678,13,images/toothbrush.png,2,1,1,1,1,0.3856024790119126,1,1,3,0,left,59,1,1,1,0,0,0.0,0,Won_Cached,0,1,1,0,1.0,0,400,400,72900,1.0,0,4,0,4,1
453,453,63ed0ffba76a3fb9dfe6dbdb_thisExp_2023-05-28_10h46.07.233.csv,-0.4915254237288136,14,images/toothbrush.png,2,1,1,1,1,-0.973655049263726,1,1,3,0,left,59,1,1,1,0,0,0.0,0,Won_Cached,0,1,1,0,1.0,0,400,400,72900,1.0,0,4,0,4,1
454,454,63ed0ffba76a3fb9dfe6dbdb_thisExp_2023-05-28_10h46.07.233.csv,-0.4745762711864407,15,images/toothbrush.png,2,1,1,0,1,-1.635268672468622,1,1,3,0,left,59,1,1,1,0,0,0.0,0,Won_Cached,0,1,1,0,1.0,0,400,400,72900,1.0,0,4,0,4,1
455,455,63ed0ffba76a3fb9dfe6dbdb_thisExp_2023-05-28_10h46.07.233.csv,-0.3898305084745763,16,images/toothbrush.png,2,1,1,1,1,-0.958415658174826,1,1,3,0,left,59,1,1,1,0,0,0.0,0,Won_Cached,0,1,1,0,1.0,0,400,400,72900,1.0,0,4,0,4,1
456,456,63ed0ffba76a3fb9dfe6dbdb_thisExp_2023-05-28_10h46.07.233.csv,-0.3728813559322034,17,images/toothbrush.png,2,1,1,0,1,-0.8814063300206533,1,1,3,0,left,59,1,1,1,0,0,0.0,0,Won_Cached,0,1,1,0,1.0,0,400,400,72900,1.0,0,4,0,4,1
457,457,63ed0ffba76a3fb9dfe6dbdb_thisExp_2023-05-28_10h46.07.233.csv,-0.1694915254237288,18,images/toothbrush.png,2,1,1,1,1,0.2481092973319577,1,1,3,0,left,59,1,1,1,0,0,0.0,0,Won_Cached,0,1,1,0,1.0,0,400,400,72900,1.0,0,4,0,4,1
458,458,63ed0ffba76a3fb9dfe6dbdb_thisExp_2023-05-28_10h46.07.233.csv,-0.135593220338983,19,images/toothbrush.png,2,1,1,1,1,0.2776317365982795,1,1,3,0,left,59,1,1,1,0,0,0.0,0,Won_Cached,0,1,1,0,1.0,0,400,400,72900,1.0,0,4,0,4,1
459,459,63ed0ffba76a3fb9dfe6dbdb_thisExp_2023-05-28_10h46.07.233.csv,-0.0508474576271186,20,images/toothbrush.png,2,1,1,1,1,-0.1901924511745238,1,1,3,0,left,59,1,1,1,0,0,0.0,0,Won_Cached,0,1,1,0,1.0,0,400,400,72900,1.0,0,4,0,4,1
460,460,63ed0ffba76a3fb9dfe6dbdb_thisExp_2023-05-28_10h46.07.233.csv,-1.0,1,images/car.png,3,1,1,1,1,1.47533492791062,0,0,3,0,left,59,0,1,1,0,0,0.0,0,Lost_Novel,0,1,1,0,0.0,0,400,500,72900,1.0,0,4,1,5,1
461,461,63ed0ffba76a3fb9dfe6dbdb_thisExp_2023-05-28_10h46.07.233.csv,-0.9830508474576272,2,images/backpack.png,3,0,1,0,1,1.3182831505033468,0,0,3,0,space,59,0,0,0,1,2,0.0,0,Won_Novel,-10,0,1,0,1.0,-100,0,-200,72900,1.0,1,0,2,2,1
462,462,63ed0ffba76a3fb9dfe6dbdb_thisExp_2023-05-28_10h46.07.233.csv,-0.9322033898305084,3,images/car.png,3,1,0,1,1,0.4736220747684465,0,0,3,0,left,59,1,1,0,0,0,1.0,-1,Lost_Novel,0,1,1,0,0.0,0,400,400,72900,1.0,0,4,0,4,1
463,463,63ed0ffba76a3fb9dfe6dbdb_thisExp_2023-05-28_10h46.07.233.csv,-0.847457627118644,4,images/car.png,3,1,1,1,1,-0.09244429039128,0,1,3,0,left,59,1,1,1,0,0,0.0,0,Won_Cached,0,1,1,0,1.0,0,400,400,72900,1.0,0,4,0,4,1
464,464,63ed0ffba76a3fb9dfe6dbdb_thisExp_2023-05-28_10h46.07.233.csv,-0.8305084745762712,5,images/car.png,3,1,1,0,1,-0.3447463730734585,0,1,3,0,left,59,1,1,1,0,0,0.0,0,Won_Cached,0,1,1,0,1.0,0,400,400,72900,1.0,0,4,0,4,1
465,465,63ed0ffba76a3fb9dfe6dbdb_thisExp_2023-05-28_10h46.07.233.csv,-0.7966101694915254,6,images/car.png,3,1,1,1,1,-0.8200718741336122,0,0,3,0,left,59,1,1,1,0,0,0.0,0,Lost_Novel,0,1,1,0,1.0,0,400,400,72900,1.0,0,4,0,4,1
466,466,63ed0ffba76a3fb9dfe6dbdb_thisExp_2023-05-28_10h46.07.233.csv,-0.7627118644067796,7,images/car.png,3,1,1,1,1,-0.6949488025065735,0,0,3,0,left,59,1,1,1,0,0,0.0,0,Lost_Novel,0,1,1,0,1.0,0,400,400,72900,1.0,0,4,0,4,1
467,467,63ed0ffba76a3fb9dfe6dbdb_thisExp_2023-05-28_10h46.07.233.csv,-0.7457627118644068,8,images/car.png,3,1,1,0,1,-1.4196443408014447,0,0,3,0,left,59,1,1,1,0,0,0.0,0,Lost_Novel,0,1,1,0,1.0,0,400,400,72900,1.0,0,4,0,4,1
468,468,63ed0ffba76a3fb9dfe6dbdb_thisExp_2023-05-28_10h46.07.233.csv,-0.6949152542372882,9,images/car.png,3,1,1,1,1,-1.5779392453747294,0,0,3,0,left,59,1,1,1,0,0,0.0,0,Lost_Novel,0,1,1,0,1.0,0,400,400,72900,1.0,0,4,0,4,1
469,469,63ed0ffba76a3fb9dfe6dbdb_thisExp_2023-05-28_10h46.07.233.csv,-0.6440677966101694,10,images/car.png,3,1,1,1,1,-1.4275331091364882,0,0,3,0,left,59,1,1,1,0,0,0.0,0,Lost_Novel,0,1,1,0,1.0,0,400,400,72900,1.0,0,4,0,4,1
