,sub,trial_num,trial_num_within_goal,current_state,decision,got_to_goal,got_to_goal_last,goal_switch,control_regressor,RT,eligible_decisions_accuracy,retrieved_cached,planning_depth,delayed_planning,choices,worry,optimally_delayed,optimally_control_choice,optimally_delayed_last
0,5PARTICIPANT_thisExp_2023-05-28_10h06.47.253.csv,-0.9830508474576272,1,start,1,1,0,1,1,2.6585798056279137,1,0,3,1,right,71,1,1,0
1,5PARTICIPANT_thisExp_2023-05-28_10h06.47.253.csv,-0.9661016949152542,2,start,1,1,1,0,1,1.640355015068822,1,1,3,1,right,71,1,1,1
2,5PARTICIPANT_thisExp_2023-05-28_10h06.47.253.csv,-0.9152542372881356,3,start,1,0,1,1,1,1.2029723039923526,1,0,3,1,left,71,0,1,1
3,5PARTICIPANT_thisExp_2023-05-28_10h06.47.253.csv,-0.864406779661017,4,start,1,1,0,1,1,1.3077921329649331,1,0,3,1,right,71,1,1,0
4,5PARTICIPANT_thisExp_2023-05-28_10h06.47.253.csv,-0.7627118644067796,5,start,1,1,1,1,1,0.6657759837638133,1,1,3,1,right,71,1,1,1
5,5PARTICIPANT_thisExp_2023-05-28_10h06.47.253.csv,-0.7457627118644068,6,start,1,1,1,0,1,0.5888971591861462,1,1,3,1,right,71,1,1,1
6,5PARTICIPANT_thisExp_2023-05-28_10h06.47.253.csv,-0.6271186440677966,7,start,1,1,1,1,1,0.5788580341578177,1,1,3,1,right,71,1,1,1
7,5PARTICIPANT_thisExp_2023-05-28_10h06.47.253.csv,-0.5932203389830508,8,start,1,1,1,1,1,0.49591501103023644,1,1,3,1,right,71,1,1,1
8,5PARTICIPANT_thisExp_2023-05-28_10h06.47.253.csv,-0.5423728813559322,9,start,1,1,1,1,1,0.23901690047049992,1,1,3,1,right,71,1,1,1
9,5PARTICIPANT_thisExp_2023-05-28_10h06.47.253.csv,-0.4745762711864407,10,start,1,1,1,1,1,0.1881379421153945,1,1,3,1,right,71,1,1,1
10,5PARTICIPANT_thisExp_2023-05-28_10h06.47.253.csv,-0.4067796610169492,11,start,1,1,1,1,1,1.09894556645823,1,1,3,1,right,71,1,1,1
11,5PARTICIPANT_thisExp_2023-05-28_10h06.47.253.csv,-0.3728813559322034,12,start,1,1,1,1,1,0.43631757159092904,1,1,3,1,right,71,1,1,1
12,5PARTICIPANT_thisExp_2023-05-28_10h06.47.253.csv,-0.3389830508474576,13,start,1,1,1,1,1,0.5754891370917129,1,1,3,1,right,71,1,1,1
13,5PARTICIPANT_thisExp_2023-05-28_10h06.47.253.csv,-0.23728813559322035,14,start,1,1,1,1,1,0.4668737362368079,1,1,3,1,right,71,1,1,1
14,5PARTICIPANT_thisExp_2023-05-28_10h06.47.253.csv,-0.2033898305084746,15,start,1,1,1,1,1,0.1906203596086497,1,1,3,1,right,71,1,1,1
15,5PARTICIPANT_thisExp_2023-05-28_10h06.47.253.csv,-0.1864406779661017,16,start,1,1,1,0,1,0.8510052651755257,1,1,3,1,right,71,1,1,1
16,5PARTICIPANT_thisExp_2023-05-28_10h06.47.253.csv,-0.15254237288135594,17,start,1,1,1,1,1,0.11332868530700327,1,1,3,1,right,71,1,1,1
17,5PARTICIPANT_thisExp_2023-05-28_10h06.47.253.csv,-0.11864406779661017,18,start,1,1,1,1,1,0.10436001532424286,1,1,3,1,right,71,1,1,1
18,5PARTICIPANT_thisExp_2023-05-28_10h06.47.253.csv,-0.06779661016949153,19,start,1,1,1,1,1,0.1380212978973746,1,1,3,1,right,71,1,1,1
19,5PARTICIPANT_thisExp_2023-05-28_10h06.47.253.csv,-0.01694915254237288,20,start,1,1,1,1,1,0.4027948795522855,1,1,3,1,right,71,1,1,1
20,5PARTICIPANT_thisExp_2023-05-28_10h06.47.253.csv,-0.9830508474576272,1,images/toothbrush.png,2,1,1,1,1,1.7288196694541809,1,0,3,0,left,71,1,1,1
21,5PARTICIPANT_thisExp_2023-05-28_10h06.47.253.csv,-0.9661016949152542,2,images/toothbrush.png,2,1,1,0,1,0.33718626735486995,1,1,3,0,left,71,1,1,1
22,5PARTICIPANT_thisExp_2023-05-28_10h06.47.253.csv,-0.9152542372881356,3,images/baby.png,2,0,1,1,1,2.3779708198999354,0,0,3,0,space,71,0,0,1
23,5PARTICIPANT_thisExp_2023-05-28_10h06.47.253.csv,-0.864406779661017,4,images/toothbrush.png,2,1,0,1,1,0.47000362924573563,1,1,3,0,left,71,1,1,0
24,5PARTICIPANT_thisExp_2023-05-28_10h06.47.253.csv,-0.7627118644067796,5,images/toothbrush.png,2,1,1,1,1,-0.10425002137379911,1,1,3,0,left,71,1,1,1
25,5PARTICIPANT_thisExp_2023-05-28_10h06.47.253.csv,-0.7457627118644068,6,images/toothbrush.png,2,1,1,0,1,0.0980337402713654,1,1,3,0,left,71,1,1,1
26,5PARTICIPANT_thisExp_2023-05-28_10h06.47.253.csv,-0.6271186440677966,7,images/toothbrush.png,2,1,1,1,1,0.07510747248680548,1,1,3,0,left,71,1,1,1
27,5PARTICIPANT_thisExp_2023-05-28_10h06.47.253.csv,-0.5932203389830508,8,images/toothbrush.png,2,1,1,1,1,0.22154226994723591,1,1,3,0,left,71,1,1,1
28,5PARTICIPANT_thisExp_2023-05-28_10h06.47.253.csv,-0.5423728813559322,9,images/toothbrush.png,2,1,1,1,1,-0.2561834053924099,1,1,3,0,left,71,1,1,1
29,5PARTICIPANT_thisExp_2023-05-28_10h06.47.253.csv,-0.4745762711864407,10,images/toothbrush.png,2,1,1,1,1,-0.5058380822549516,1,1,3,0,left,71,1,1,1
30,5PARTICIPANT_thisExp_2023-05-28_10h06.47.253.csv,-0.4067796610169492,11,images/toothbrush.png,2,1,1,1,1,-0.5905905922348531,1,1,3,0,left,71,1,1,1
31,5PARTICIPANT_thisExp_2023-05-28_10h06.47.253.csv,-0.3728813559322034,12,images/toothbrush.png,2,1,1,1,1,-0.6812186096946715,1,1,3,0,left,71,1,1,1
32,5PARTICIPANT_thisExp_2023-05-28_10h06.47.253.csv,-0.3389830508474576,13,images/toothbrush.png,2,1,1,1,1,-0.44941699563734716,1,1,3,0,left,71,1,1,1
33,5PARTICIPANT_thisExp_2023-05-28_10h06.47.253.csv,-0.23728813559322035,14,images/toothbrush.png,2,1,1,1,1,-0.7381445464906811,1,1,3,0,left,71,1,1,1
34,5PARTICIPANT_thisExp_2023-05-28_10h06.47.253.csv,-0.2033898305084746,15,images/toothbrush.png,2,1,1,1,1,-0.6386589952758756,1,1,3,0,left,71,1,1,1
35,5PARTICIPANT_thisExp_2023-05-28_10h06.47.253.csv,-0.1864406779661017,16,images/toothbrush.png,2,1,1,0,1,-0.707246104939447,1,1,3,0,left,71,1,1,1
36,5PARTICIPANT_thisExp_2023-05-28_10h06.47.253.csv,-0.15254237288135594,17,images/toothbrush.png,2,1,1,1,1,-0.7444404749474959,1,1,3,0,left,71,1,1,1
37,5PARTICIPANT_thisExp_2023-05-28_10h06.47.253.csv,-0.11864406779661017,18,images/toothbrush.png,2,1,1,1,1,0.24998020526776946,1,1,3,0,left,71,1,1,1
38,5PARTICIPANT_thisExp_2023-05-28_10h06.47.253.csv,-0.06779661016949153,19,images/toothbrush.png,2,1,1,1,1,-0.7550225842780328,1,1,3,0,left,71,1,1,1
39,5PARTICIPANT_thisExp_2023-05-28_10h06.47.253.csv,-0.01694915254237288,20,images/toothbrush.png,2,1,1,1,1,-0.6014799920341214,1,1,3,0,left,71,1,1,1
40,5PARTICIPANT_thisExp_2023-05-28_10h06.47.253.csv,-0.9830508474576272,1,images/car.png,3,1,1,1,1,0.30601302913650447,0,0,3,0,left,71,1,1,1
41,5PARTICIPANT_thisExp_2023-05-28_10h06.47.253.csv,-0.9661016949152542,2,images/car.png,3,1,1,0,1,-0.8119307165499123,0,0,3,0,left,71,1,1,1
42,5PARTICIPANT_thisExp_2023-05-28_10h06.47.253.csv,-0.9152542372881356,3,images/bowtie.png,3,0,1,1,1,1.8702625307159986,0,0,3,0,right,71,0,1,1
43,5PARTICIPANT_thisExp_2023-05-28_10h06.47.253.csv,-0.864406779661017,4,images/car.png,3,1,0,1,1,-0.2783920255446883,0,0,3,0,left,71,1,1,0
44,5PARTICIPANT_thisExp_2023-05-28_10h06.47.253.csv,-0.7627118644067796,5,images/car.png,3,1,1,1,1,-0.08229524272683016,0,0,3,0,left,71,1,1,1
45,5PARTICIPANT_thisExp_2023-05-28_10h06.47.253.csv,-0.7457627118644068,6,images/car.png,3,1,1,0,1,-0.2294131643278051,0,0,3,0,left,71,1,1,1
46,5PARTICIPANT_thisExp_2023-05-28_10h06.47.253.csv,-0.6271186440677966,7,images/car.png,3,1,1,1,1,-0.2231435513142097,0,0,3,0,left,71,1,1,1
47,5PARTICIPANT_thisExp_2023-05-28_10h06.47.253.csv,-0.5932203389830508,8,images/car.png,3,1,1,1,1,-0.3229638865964207,0,1,3,0,left,71,1,1,1
48,5PARTICIPANT_thisExp_2023-05-28_10h06.47.253.csv,-0.5423728813559322,9,images/car.png,3,1,1,1,1,-0.6106459590482015,0,1,3,0,left,71,1,1,1
49,5PARTICIPANT_thisExp_2023-05-28_10h06.47.253.csv,-0.4745762711864407,10,images/car.png,3,1,1,1,1,-0.6597124044737079,0,0,3,0,left,71,1,1,1
50,5PARTICIPANT_thisExp_2023-05-28_10h06.47.253.csv,-0.4067796610169492,11,images/car.png,3,1,1,1,1,-0.6831968497067772,0,0,3,0,left,71,1,1,1
51,5PARTICIPANT_thisExp_2023-05-28_10h06.47.253.csv,-0.3728813559322034,12,images/car.png,3,1,1,1,1,-0.709276562489829,0,0,3,0,left,71,1,1,1
52,5PARTICIPANT_thisExp_2023-05-28_10h06.47.253.csv,-0.3389830508474576,13,images/car.png,3,1,1,1,1,-0.6367668471238376,0,0,3,0,left,71,1,1,1
53,5PARTICIPANT_thisExp_2023-05-28_10h06.47.253.csv,-0.23728813559322035,14,images/car.png,3,1,1,1,1,-0.6991652528855083,0,0,3,0,left,71,1,1,1
54,5PARTICIPANT_thisExp_2023-05-28_10h06.47.253.csv,-0.2033898305084746,15,images/car.png,3,1,1,1,1,-0.7852624694677509,0,1,3,0,left,71,1,1,1
55,5PARTICIPANT_thisExp_2023-05-28_10h06.47.253.csv,-0.1864406779661017,16,images/car.png,3,1,1,0,1,-0.8556661100577202,0,1,3,0,left,71,1,1,1
56,5PARTICIPANT_thisExp_2023-05-28_10h06.47.253.csv,-0.15254237288135594,17,images/car.png,3,1,1,1,1,-0.6753072624316143,0,0,3,0,left,71,1,1,1
57,5PARTICIPANT_thisExp_2023-05-28_10h06.47.253.csv,-0.11864406779661017,18,images/car.png,3,1,1,1,1,-0.908818717035454,0,1,3,0,left,71,1,1,1
58,5PARTICIPANT_thisExp_2023-05-28_10h06.47.253.csv,-0.06779661016949153,19,images/car.png,3,1,1,1,1,-0.7423374247507171,0,0,3,0,left,71,1,1,1
59,5PARTICIPANT_thisExp_2023-05-28_10h06.47.253.csv,-0.01694915254237288,20,images/car.png,3,1,1,1,1,-0.6198967188203526,0,0,3,0,left,71,1,1,1
60,55d22025cc2b18000c0b9d9c_thisExp_2023-05-28_10h07.02.505.csv,-1.0,1,start,1,0,0,1,1,3.205620358065751,1,0,3,1,left,33,0,1,0
61,55d22025cc2b18000c0b9d9c_thisExp_2023-05-28_10h07.02.505.csv,-0.9152542372881356,2,start,1,1,0,1,1,2.819233730062825,1,0,3,1,right,33,1,1,0
62,55d22025cc2b18000c0b9d9c_thisExp_2023-05-28_10h07.02.505.csv,-0.8983050847457628,3,start,1,1,1,0,1,1.510103646846177,1,1,3,1,right,33,1,1,1
63,55d22025cc2b18000c0b9d9c_thisExp_2023-05-28_10h07.02.505.csv,-0.847457627118644,4,start,1,1,1,1,1,1.3941385151429397,1,1,3,1,right,33,1,1,1
64,55d22025cc2b18000c0b9d9c_thisExp_2023-05-28_10h07.02.505.csv,-0.7288135593220338,5,start,1,1,1,1,1,2.029778496660735,1,1,3,1,right,33,1,1,1
65,55d22025cc2b18000c0b9d9c_thisExp_2023-05-28_10h07.02.505.csv,-0.711864406779661,6,start,1,1,1,0,1,1.113270989676769,1,1,3,1,right,33,1,1,1
66,55d22025cc2b18000c0b9d9c_thisExp_2023-05-28_10h07.02.505.csv,-0.6779661016949152,7,start,1,1,1,1,1,0.8061633170286486,1,1,3,1,right,33,1,1,1
67,55d22025cc2b18000c0b9d9c_thisExp_2023-05-28_10h07.02.505.csv,-0.6610169491525424,8,start,1,1,1,0,1,-0.009343515003152466,1,1,3,1,right,33,1,1,1
68,55d22025cc2b18000c0b9d9c_thisExp_2023-05-28_10h07.02.505.csv,-0.576271186440678,9,start,1,1,1,1,1,0.2530906276821619,1,1,3,1,right,33,1,1,1
69,55d22025cc2b18000c0b9d9c_thisExp_2023-05-28_10h07.02.505.csv,-0.559322033898305,10,start,1,1,1,0,1,1.0631232707378062,1,1,3,1,right,33,1,1,1
70,55d22025cc2b18000c0b9d9c_thisExp_2023-05-28_10h07.02.505.csv,-0.5254237288135594,11,start,1,1,1,1,1,1.1193948278506383,1,1,3,1,right,33,1,1,1
71,55d22025cc2b18000c0b9d9c_thisExp_2023-05-28_10h07.02.505.csv,-0.4915254237288136,12,start,1,1,1,1,1,0.25433209277022684,1,1,3,1,right,33,1,1,1
72,55d22025cc2b18000c0b9d9c_thisExp_2023-05-28_10h07.02.505.csv,-0.4576271186440678,13,start,1,1,1,1,1,2.5172044160871625,1,1,3,1,right,33,1,1,1
73,55d22025cc2b18000c0b9d9c_thisExp_2023-05-28_10h07.02.505.csv,-0.3898305084745763,14,start,1,1,1,1,1,0.08130345106403479,1,1,3,1,right,33,1,1,1
74,55d22025cc2b18000c0b9d9c_thisExp_2023-05-28_10h07.02.505.csv,-0.3559322033898305,15,start,1,1,1,1,1,-0.5471438864401024,1,1,3,1,right,33,1,1,1
75,55d22025cc2b18000c0b9d9c_thisExp_2023-05-28_10h07.02.505.csv,-0.23728813559322035,16,start,1,1,1,1,1,1.021587245483894,1,1,3,1,right,33,1,1,1
76,55d22025cc2b18000c0b9d9c_thisExp_2023-05-28_10h07.02.505.csv,-0.1694915254237288,17,start,1,1,1,1,1,0.2969143237653586,1,1,3,1,right,33,1,1,1
77,55d22025cc2b18000c0b9d9c_thisExp_2023-05-28_10h07.02.505.csv,-0.0847457627118644,18,start,1,1,1,1,1,-0.059325466084814774,1,1,3,1,right,33,1,1,1
78,55d22025cc2b18000c0b9d9c_thisExp_2023-05-28_10h07.02.505.csv,-0.05084745762711865,19,start,1,1,1,1,1,-0.07440032257625016,1,1,3,1,right,33,0,1,1
79,55d22025cc2b18000c0b9d9c_thisExp_2023-05-28_10h07.02.505.csv,0.0,20,start,1,1,1,1,1,0.3051289860555016,1,1,3,1,right,33,1,1,0
80,55d22025cc2b18000c0b9d9c_thisExp_2023-05-28_10h07.02.505.csv,-1.0,1,images/baby.png,2,0,1,1,1,2.968104106436517,0,0,3,0,space,33,0,0,1
81,55d22025cc2b18000c0b9d9c_thisExp_2023-05-28_10h07.02.505.csv,-0.9152542372881356,2,images/toothbrush.png,2,1,0,1,1,0.7071487001957589,1,0,3,0,left,33,1,1,0
82,55d22025cc2b18000c0b9d9c_thisExp_2023-05-28_10h07.02.505.csv,-0.8983050847457628,3,images/toothbrush.png,2,1,1,0,1,0.19235439249432926,1,1,3,0,left,33,1,1,1
83,55d22025cc2b18000c0b9d9c_thisExp_2023-05-28_10h07.02.505.csv,-0.847457627118644,4,images/toothbrush.png,2,1,1,1,1,-0.5526898278646895,1,1,3,0,left,33,1,1,1
84,55d22025cc2b18000c0b9d9c_thisExp_2023-05-28_10h07.02.505.csv,-0.7288135593220338,5,images/toothbrush.png,2,1,1,1,1,-0.1790070558261249,1,1,3,0,left,33,1,1,1
85,55d22025cc2b18000c0b9d9c_thisExp_2023-05-28_10h07.02.505.csv,-0.711864406779661,6,images/toothbrush.png,2,1,1,0,1,-0.887460350206278,1,1,3,0,left,33,1,1,1
86,55d22025cc2b18000c0b9d9c_thisExp_2023-05-28_10h07.02.505.csv,-0.6779661016949152,7,images/toothbrush.png,2,1,1,1,1,-1.1344467416773258,1,1,3,0,left,33,1,1,1
87,55d22025cc2b18000c0b9d9c_thisExp_2023-05-28_10h07.02.505.csv,-0.6610169491525424,8,images/toothbrush.png,2,1,1,0,1,-0.9771028712709124,1,1,3,0,left,33,1,1,1
88,55d22025cc2b18000c0b9d9c_thisExp_2023-05-28_10h07.02.505.csv,-0.576271186440678,9,images/toothbrush.png,2,1,1,1,1,-1.1596369905058843,1,1,3,0,left,33,1,1,1
89,55d22025cc2b18000c0b9d9c_thisExp_2023-05-28_10h07.02.505.csv,-0.559322033898305,10,images/toothbrush.png,2,1,1,0,1,-0.5447271754416722,1,1,3,0,left,33,1,1,1
90,55d22025cc2b18000c0b9d9c_thisExp_2023-05-28_10h07.02.505.csv,-0.5254237288135594,11,images/toothbrush.png,2,1,1,1,1,-0.9573731769753849,1,1,3,0,left,33,1,1,1
91,55d22025cc2b18000c0b9d9c_thisExp_2023-05-28_10h07.02.505.csv,-0.4915254237288136,12,images/toothbrush.png,2,1,1,1,1,-1.3302921710046058,1,1,3,0,left,33,1,1,1
92,55d22025cc2b18000c0b9d9c_thisExp_2023-05-28_10h07.02.505.csv,-0.4576271186440678,13,images/toothbrush.png,2,1,1,1,1,-1.2837377727947985,1,1,3,0,left,33,1,1,1
93,55d22025cc2b18000c0b9d9c_thisExp_2023-05-28_10h07.02.505.csv,-0.3898305084745763,14,images/toothbrush.png,2,1,1,1,1,-0.27496330004400615,1,1,3,0,left,33,1,1,1
94,55d22025cc2b18000c0b9d9c_thisExp_2023-05-28_10h07.02.505.csv,-0.3559322033898305,15,images/toothbrush.png,2,1,1,1,1,-1.1092688688566386,1,1,3,0,left,33,1,1,1
95,55d22025cc2b18000c0b9d9c_thisExp_2023-05-28_10h07.02.505.csv,-0.23728813559322035,16,images/toothbrush.png,2,1,1,1,1,-0.8955081926916266,1,1,3,0,left,33,1,1,1
96,55d22025cc2b18000c0b9d9c_thisExp_2023-05-28_10h07.02.505.csv,-0.1694915254237288,17,images/toothbrush.png,2,1,1,1,1,-1.1233149013084816,1,1,3,0,left,33,1,1,1
97,55d22025cc2b18000c0b9d9c_thisExp_2023-05-28_10h07.02.505.csv,-0.0847457627118644,18,images/toothbrush.png,2,1,1,1,1,-1.4731602941415527,1,1,3,0,left,33,1,1,1
98,55d22025cc2b18000c0b9d9c_thisExp_2023-05-28_10h07.02.505.csv,-0.05084745762711865,19,images/toothbrush.png,2,1,1,1,1,-0.7031975164134467,1,1,3,0,left,33,0,1,1
99,55d22025cc2b18000c0b9d9c_thisExp_2023-05-28_10h07.02.505.csv,0.0,20,images/toothbrush.png,2,1,1,1,1,-1.5687759307152107,1,1,3,0,left,33,1,1,0
100,55d22025cc2b18000c0b9d9c_thisExp_2023-05-28_10h07.02.505.csv,-1.0,1,images/backpack.png,3,0,1,1,1,3.4069938827759634,0,0,3,0,space,33,0,0,1
101,55d22025cc2b18000c0b9d9c_thisExp_2023-05-28_10h07.02.505.csv,-0.9152542372881356,2,images/car.png,3,1,0,1,1,0.07705362944229147,0,0,3,0,left,33,1,1,0
102,55d22025cc2b18000c0b9d9c_thisExp_2023-05-28_10h07.02.505.csv,-0.8983050847457628,3,images/car.png,3,1,1,0,1,-0.5744756508424468,0,0,3,0,left,33,1,1,1
103,55d22025cc2b18000c0b9d9c_thisExp_2023-05-28_10h07.02.505.csv,-0.847457627118644,4,images/car.png,3,1,1,1,1,-0.8942846516115405,0,0,3,0,left,33,1,1,1
104,55d22025cc2b18000c0b9d9c_thisExp_2023-05-28_10h07.02.505.csv,-0.7288135593220338,5,images/car.png,3,1,1,1,1,-0.31361545447828537,0,0,3,0,left,33,1,1,1
105,55d22025cc2b18000c0b9d9c_thisExp_2023-05-28_10h07.02.505.csv,-0.711864406779661,6,images/car.png,3,1,1,0,1,-0.984837274409265,0,0,3,0,left,33,1,1,1
106,55d22025cc2b18000c0b9d9c_thisExp_2023-05-28_10h07.02.505.csv,-0.6779661016949152,7,images/car.png,3,1,1,1,1,-1.468806782694355,0,0,3,0,left,33,1,1,1
107,55d22025cc2b18000c0b9d9c_thisExp_2023-05-28_10h07.02.505.csv,-0.6610169491525424,8,images/car.png,3,1,1,0,1,-0.9699552564598479,0,0,3,0,left,33,1,1,1
108,55d22025cc2b18000c0b9d9c_thisExp_2023-05-28_10h07.02.505.csv,-0.576271186440678,9,images/car.png,3,1,1,1,1,-1.2224762758904957,0,0,3,0,left,33,1,1,1
109,55d22025cc2b18000c0b9d9c_thisExp_2023-05-28_10h07.02.505.csv,-0.559322033898305,10,images/car.png,3,1,1,0,1,-0.41309413527265554,0,0,3,0,left,33,1,1,1
110,55d22025cc2b18000c0b9d9c_thisExp_2023-05-28_10h07.02.505.csv,-0.5254237288135594,11,images/car.png,3,1,1,1,1,-1.0808706071919527,0,0,3,0,left,33,1,1,1
111,55d22025cc2b18000c0b9d9c_thisExp_2023-05-28_10h07.02.505.csv,-0.4915254237288136,12,images/car.png,3,1,1,1,1,-1.8611095473628483,0,0,3,0,left,33,1,1,1
112,55d22025cc2b18000c0b9d9c_thisExp_2023-05-28_10h07.02.505.csv,-0.4576271186440678,13,images/car.png,3,1,1,1,1,-1.8213942743577458,0,0,3,0,left,33,1,1,1
113,55d22025cc2b18000c0b9d9c_thisExp_2023-05-28_10h07.02.505.csv,-0.3898305084745763,14,images/car.png,3,1,1,1,1,-1.9484132792734319,0,0,3,0,left,33,1,1,1
114,55d22025cc2b18000c0b9d9c_thisExp_2023-05-28_10h07.02.505.csv,-0.3559322033898305,15,images/car.png,3,1,1,1,1,-1.7350011354094461,0,0,3,0,left,33,1,1,1
115,55d22025cc2b18000c0b9d9c_thisExp_2023-05-28_10h07.02.505.csv,-0.23728813559322035,16,images/car.png,3,1,1,1,1,-1.2093204106525313,0,0,3,0,left,33,1,1,1
116,55d22025cc2b18000c0b9d9c_thisExp_2023-05-28_10h07.02.505.csv,-0.1694915254237288,17,images/car.png,3,1,1,1,1,-1.8257299887992084,0,0,3,0,left,33,1,1,1
117,55d22025cc2b18000c0b9d9c_thisExp_2023-05-28_10h07.02.505.csv,-0.0847457627118644,18,images/car.png,3,1,1,1,1,-1.6144504542576446,0,0,3,0,left,33,1,1,1
118,55d22025cc2b18000c0b9d9c_thisExp_2023-05-28_10h07.02.505.csv,-0.05084745762711865,19,images/car.png,3,1,1,1,1,-0.3293377477206134,0,0,3,0,space,33,0,0,1
119,55d22025cc2b18000c0b9d9c_thisExp_2023-05-28_10h07.02.505.csv,0.0,20,images/car.png,3,1,1,1,1,-1.9058244255160277,0,0,3,0,left,33,1,1,0
120,5PARTICIPANT_thisExp_2023-05-28_14h22.50.475.csv,-1.0,1,start,1,0,0,1,1,1.7045480722357582,1,0,3,1,left,31,0,1,0
121,5PARTICIPANT_thisExp_2023-05-28_14h22.50.475.csv,-0.8983050847457628,2,start,1,1,0,1,1,-0.02245012883759187,1,0,3,1,right,31,1,1,0
122,5PARTICIPANT_thisExp_2023-05-28_14h22.50.475.csv,-0.8135593220338984,3,start,1,1,1,1,1,0.7761087012742927,1,1,3,1,right,31,1,1,1
123,5PARTICIPANT_thisExp_2023-05-28_14h22.50.475.csv,-0.7796610169491526,4,start,1,1,1,1,1,0.5191508725119809,1,1,3,1,right,31,1,1,1
124,5PARTICIPANT_thisExp_2023-05-28_14h22.50.475.csv,-0.7627118644067796,5,start,1,1,1,0,1,0.8873149596375814,1,1,3,1,right,31,1,1,1
125,5PARTICIPANT_thisExp_2023-05-28_14h22.50.475.csv,-0.7457627118644068,6,start,1,1,1,0,1,0.29773140830478234,1,1,3,1,right,31,1,1,1
126,5PARTICIPANT_thisExp_2023-05-28_14h22.50.475.csv,-0.6610169491525424,7,start,1,1,1,1,1,0.8945358000711258,1,1,3,1,right,31,1,1,1
127,5PARTICIPANT_thisExp_2023-05-28_14h22.50.475.csv,-0.6440677966101694,8,start,1,0,1,0,1,0.4247447228401206,1,0,3,1,left,31,0,1,1
128,5PARTICIPANT_thisExp_2023-05-28_14h22.50.475.csv,-0.6271186440677966,9,start,1,1,0,0,1,0.45976388151554326,1,0,3,1,right,31,1,1,0
129,5PARTICIPANT_thisExp_2023-05-28_14h22.50.475.csv,-0.5932203389830508,10,start,1,1,1,1,1,0.4505022065828855,1,1,3,1,right,31,1,1,1
130,5PARTICIPANT_thisExp_2023-05-28_14h22.50.475.csv,-0.5423728813559322,11,start,1,1,1,1,1,0.5894519442211802,1,1,3,1,right,31,1,1,1
131,5PARTICIPANT_thisExp_2023-05-28_14h22.50.475.csv,-0.5084745762711864,12,start,1,1,1,1,1,0.3266383275621934,1,1,3,1,right,31,1,1,1
132,5PARTICIPANT_thisExp_2023-05-28_14h22.50.475.csv,-0.4745762711864407,13,start,1,1,1,1,1,0.6124792774924905,1,1,3,1,right,31,1,1,1
133,5PARTICIPANT_thisExp_2023-05-28_14h22.50.475.csv,-0.4067796610169492,14,start,1,1,1,1,1,0.5809858136716152,1,1,3,1,right,31,1,1,1
134,5PARTICIPANT_thisExp_2023-05-28_14h22.50.475.csv,-0.3050847457627119,15,start,1,1,1,1,1,0.7217346374118577,1,1,3,1,right,31,1,1,1
135,5PARTICIPANT_thisExp_2023-05-28_14h22.50.475.csv,-0.288135593220339,16,start,1,0,1,0,1,0.4564750290159093,1,0,3,1,left,31,1,1,1
136,5PARTICIPANT_thisExp_2023-05-28_14h22.50.475.csv,-0.1694915254237288,17,start,1,1,0,1,1,0.7934449018753091,1,0,3,1,right,31,1,1,1
137,5PARTICIPANT_thisExp_2023-05-28_14h22.50.475.csv,-0.15254237288135594,18,start,1,1,1,0,1,1.7493041971914904,1,1,3,1,right,31,1,1,1
138,5PARTICIPANT_thisExp_2023-05-28_14h22.50.475.csv,-0.1016949152542373,19,start,1,1,1,1,1,1.0373040999397052,1,1,3,1,right,31,1,1,1
139,5PARTICIPANT_thisExp_2023-05-28_14h22.50.475.csv,-0.03389830508474576,20,start,1,1,1,1,1,0.6990298437181008,1,1,3,1,right,31,1,1,1
140,5PARTICIPANT_thisExp_2023-05-28_14h22.50.475.csv,-1.0,1,images/baby.png,2,0,1,1,1,1.6821119999235243,0,0,3,0,space,31,0,0,1
141,5PARTICIPANT_thisExp_2023-05-28_14h22.50.475.csv,-0.8983050847457628,2,images/toothbrush.png,2,1,0,1,1,0.6928471355509433,1,0,3,0,left,31,1,1,0
142,5PARTICIPANT_thisExp_2023-05-28_14h22.50.475.csv,-0.8135593220338984,3,images/toothbrush.png,2,1,1,1,1,0.19712806411092776,1,1,3,0,left,31,1,1,1
143,5PARTICIPANT_thisExp_2023-05-28_14h22.50.475.csv,-0.7796610169491526,4,images/toothbrush.png,2,1,1,1,1,-0.2669648308630592,1,1,3,0,left,31,1,1,1
144,5PARTICIPANT_thisExp_2023-05-28_14h22.50.475.csv,-0.7627118644067796,5,images/toothbrush.png,2,1,1,0,1,-0.6348782724359695,1,1,3,0,left,31,1,1,1
145,5PARTICIPANT_thisExp_2023-05-28_14h22.50.475.csv,-0.7457627118644068,6,images/toothbrush.png,2,1,1,0,1,-0.687363935804218,1,1,3,0,left,31,1,1,1
146,5PARTICIPANT_thisExp_2023-05-28_14h22.50.475.csv,-0.6610169491525424,7,images/toothbrush.png,2,1,1,1,1,-0.491022996469811,1,1,3,0,left,31,1,1,1
147,5PARTICIPANT_thisExp_2023-05-28_14h22.50.475.csv,-0.6440677966101694,8,images/baby.png,2,0,1,0,1,1.0404887033176016,0,0,3,0,right,31,0,1,1
148,5PARTICIPANT_thisExp_2023-05-28_14h22.50.475.csv,-0.6271186440677966,9,images/toothbrush.png,2,1,0,0,1,-0.11059642134202675,1,1,3,0,left,31,1,1,0
149,5PARTICIPANT_thisExp_2023-05-28_14h22.50.475.csv,-0.5932203389830508,10,images/toothbrush.png,2,1,1,1,1,-0.6907500559602239,1,1,3,0,left,31,1,1,1
150,5PARTICIPANT_thisExp_2023-05-28_14h22.50.475.csv,-0.5423728813559322,11,images/toothbrush.png,2,1,1,1,1,-0.8826142055147712,1,1,3,0,left,31,1,1,1
151,5PARTICIPANT_thisExp_2023-05-28_14h22.50.475.csv,-0.5084745762711864,12,images/toothbrush.png,2,1,1,1,1,-0.8474645409443026,1,1,3,0,left,31,1,1,1
152,5PARTICIPANT_thisExp_2023-05-28_14h22.50.475.csv,-0.4745762711864407,13,images/toothbrush.png,2,1,1,1,1,-0.721135217100114,1,1,3,0,left,31,1,1,1
153,5PARTICIPANT_thisExp_2023-05-28_14h22.50.475.csv,-0.4067796610169492,14,images/toothbrush.png,2,1,1,1,1,-0.7940730991499059,1,1,3,0,left,31,1,1,1
154,5PARTICIPANT_thisExp_2023-05-28_14h22.50.475.csv,-0.3050847457627119,15,images/toothbrush.png,2,1,1,1,1,-0.9218059125622653,1,1,3,0,left,31,1,1,1
155,5PARTICIPANT_thisExp_2023-05-28_14h22.50.475.csv,-0.288135593220339,16,images/baby.png,2,0,1,0,1,-0.9223088041997181,0,0,3,0,left,31,1,1,1
156,5PARTICIPANT_thisExp_2023-05-28_14h22.50.475.csv,-0.1694915254237288,17,images/toothbrush.png,2,1,0,1,1,-1.1071486196903961,1,1,3,0,left,31,1,1,1
157,5PARTICIPANT_thisExp_2023-05-28_14h22.50.475.csv,-0.15254237288135594,18,images/toothbrush.png,2,1,1,0,1,-1.060161102293857,1,1,3,0,left,31,1,1,1
158,5PARTICIPANT_thisExp_2023-05-28_14h22.50.475.csv,-0.1016949152542373,19,images/toothbrush.png,2,1,1,1,1,-0.9296292963133357,1,1,3,0,left,31,1,1,1
159,5PARTICIPANT_thisExp_2023-05-28_14h22.50.475.csv,-0.03389830508474576,20,images/toothbrush.png,2,1,1,1,1,-0.9308968842635172,1,1,3,0,left,31,1,1,1
160,5PARTICIPANT_thisExp_2023-05-28_14h22.50.475.csv,-1.0,1,images/backpack.png,3,0,1,1,1,1.230897071263796,0,0,3,0,space,31,0,0,1
161,5PARTICIPANT_thisExp_2023-05-28_14h22.50.475.csv,-0.8983050847457628,2,images/car.png,3,1,0,1,1,-0.43850496218636453,0,0,3,0,left,31,1,1,0
162,5PARTICIPANT_thisExp_2023-05-28_14h22.50.475.csv,-0.8135593220338984,3,images/car.png,3,1,1,1,1,-0.6202685351473729,0,0,3,0,left,31,1,1,1
163,5PARTICIPANT_thisExp_2023-05-28_14h22.50.475.csv,-0.7796610169491526,4,images/car.png,3,1,1,1,1,-0.28634962721800233,0,0,3,0,left,31,1,1,1
164,5PARTICIPANT_thisExp_2023-05-28_14h22.50.475.csv,-0.7627118644067796,5,images/car.png,3,1,1,0,1,-0.6810210007621047,0,0,3,0,left,31,1,1,1
165,5PARTICIPANT_thisExp_2023-05-28_14h22.50.475.csv,-0.7457627118644068,6,images/car.png,3,1,1,0,1,-0.7111075059369382,0,0,3,0,left,31,1,1,1
166,5PARTICIPANT_thisExp_2023-05-28_14h22.50.475.csv,-0.6610169491525424,7,images/car.png,3,1,1,1,1,-0.1313623181968271,0,0,3,0,left,31,1,1,1
167,5PARTICIPANT_thisExp_2023-05-28_14h22.50.475.csv,-0.6440677966101694,8,images/bowtie.png,3,0,1,0,1,-0.4320144433417009,0,0,3,0,space,31,0,0,1
168,5PARTICIPANT_thisExp_2023-05-28_14h22.50.475.csv,-0.6271186440677966,9,images/car.png,3,1,0,0,1,-0.12137698616659968,0,0,3,0,left,31,1,1,0
169,5PARTICIPANT_thisExp_2023-05-28_14h22.50.475.csv,-0.5932203389830508,10,images/car.png,3,1,1,1,1,-0.8205261098897758,0,0,3,0,left,31,1,1,1
170,5PARTICIPANT_thisExp_2023-05-28_14h22.50.475.csv,-0.5423728813559322,11,images/car.png,3,1,1,1,1,-0.7802312874670587,0,0,3,0,left,31,1,1,1
171,5PARTICIPANT_thisExp_2023-05-28_14h22.50.475.csv,-0.5084745762711864,12,images/car.png,3,1,1,1,1,-0.5607163933794558,0,0,3,0,left,31,1,1,1
172,5PARTICIPANT_thisExp_2023-05-28_14h22.50.475.csv,-0.4745762711864407,13,images/car.png,3,1,1,1,1,-0.2004040643447203,0,0,3,0,left,31,1,1,1
173,5PARTICIPANT_thisExp_2023-05-28_14h22.50.475.csv,-0.4067796610169492,14,images/car.png,3,1,1,1,1,-0.9110544650789086,0,1,3,0,left,31,1,1,1
174,5PARTICIPANT_thisExp_2023-05-28_14h22.50.475.csv,-0.3050847457627119,15,images/car.png,3,1,1,1,1,-0.9055981023354119,0,0,3,0,left,31,1,1,1
175,5PARTICIPANT_thisExp_2023-05-28_14h22.50.475.csv,-0.288135593220339,16,images/backpack.png,3,0,1,0,1,-0.2457726693745713,0,0,3,0,right,31,1,1,1
176,5PARTICIPANT_thisExp_2023-05-28_14h22.50.475.csv,-0.1694915254237288,17,images/car.png,3,1,0,1,1,-0.9969586349416099,0,0,3,0,left,31,1,1,1
177,5PARTICIPANT_thisExp_2023-05-28_14h22.50.475.csv,-0.15254237288135594,18,images/car.png,3,1,1,0,1,-0.3036759622061304,0,0,3,0,left,31,1,1,1
178,5PARTICIPANT_thisExp_2023-05-28_14h22.50.475.csv,-0.1016949152542373,19,images/car.png,3,1,1,1,1,-0.9390477189967712,0,0,3,0,left,31,1,1,1
179,5PARTICIPANT_thisExp_2023-05-28_14h22.50.475.csv,-0.03389830508474576,20,images/car.png,3,1,1,1,1,-0.9620729245292828,0,0,3,0,left,31,1,1,1
180,5d7874252f037f0016637125_thisExp_2023-05-28_10h06.52.243.csv,-0.9830508474576272,1,start,1,1,0,1,1,2.1634379615838872,1,0,3,1,right,20,1,1,0
181,5d7874252f037f0016637125_thisExp_2023-05-28_10h06.52.243.csv,-0.8983050847457628,2,start,1,0,1,1,1,1.63860828973388,1,0,3,1,left,20,0,1,1
182,5d7874252f037f0016637125_thisExp_2023-05-28_10h06.52.243.csv,-0.8813559322033898,3,start,1,1,0,0,1,1.665818245870208,1,0,3,1,right,20,1,1,0
183,5d7874252f037f0016637125_thisExp_2023-05-28_10h06.52.243.csv,-0.7796610169491526,4,start,1,1,1,1,1,1.1458138901524038,1,1,3,1,right,20,1,1,1
184,5d7874252f037f0016637125_thisExp_2023-05-28_10h06.52.243.csv,-0.7288135593220338,5,start,1,1,1,1,1,0.9094675065260296,1,1,3,1,right,20,1,1,1
185,5d7874252f037f0016637125_thisExp_2023-05-28_10h06.52.243.csv,-0.6779661016949152,6,start,1,1,1,1,1,1.4291143583028187,1,1,3,1,right,20,1,1,1
186,5d7874252f037f0016637125_thisExp_2023-05-28_10h06.52.243.csv,-0.5932203389830508,7,start,1,1,1,1,1,1.715598108262491,1,1,3,1,right,20,1,1,1
187,5d7874252f037f0016637125_thisExp_2023-05-28_10h06.52.243.csv,-0.5423728813559322,8,start,1,1,1,1,1,0.7575294394892135,1,1,3,1,right,20,1,1,1
188,5d7874252f037f0016637125_thisExp_2023-05-28_10h06.52.243.csv,-0.5254237288135594,9,start,1,1,1,0,1,0.8866559267444644,1,1,3,1,right,20,1,1,1
189,5d7874252f037f0016637125_thisExp_2023-05-28_10h06.52.243.csv,-0.5084745762711864,10,start,1,1,1,0,1,0.8294247988524931,1,1,3,1,right,20,1,1,1
190,5d7874252f037f0016637125_thisExp_2023-05-28_10h06.52.243.csv,-0.4745762711864407,11,start,1,1,1,1,1,0.8158071932958328,1,1,3,1,right,20,1,1,1
191,5d7874252f037f0016637125_thisExp_2023-05-28_10h06.52.243.csv,-0.4576271186440678,12,start,1,1,1,0,1,0.7820733897543468,1,1,3,1,right,20,1,1,1
192,5d7874252f037f0016637125_thisExp_2023-05-28_10h06.52.243.csv,-0.3728813559322034,13,start,1,1,1,1,1,0.845438990902204,1,1,3,1,right,20,1,1,1
193,5d7874252f037f0016637125_thisExp_2023-05-28_10h06.52.243.csv,-0.3559322033898305,14,start,1,1,1,0,1,0.03729578474369693,1,1,3,1,right,20,1,1,1
194,5d7874252f037f0016637125_thisExp_2023-05-28_10h06.52.243.csv,-0.3389830508474576,15,start,1,1,1,0,1,0.6243328645595856,1,1,3,1,right,20,1,1,1
195,5d7874252f037f0016637125_thisExp_2023-05-28_10h06.52.243.csv,-0.2711864406779661,16,start,1,1,1,1,1,0.8862438105218584,1,1,3,1,right,20,1,1,1
196,5d7874252f037f0016637125_thisExp_2023-05-28_10h06.52.243.csv,-0.0847457627118644,17,start,1,1,1,1,1,0.4408322519454557,1,1,3,1,right,20,1,1,1
197,5d7874252f037f0016637125_thisExp_2023-05-28_10h06.52.243.csv,-0.06779661016949153,18,start,1,1,1,0,1,0.6507614640635074,1,1,3,1,right,20,1,1,1
198,5d7874252f037f0016637125_thisExp_2023-05-28_10h06.52.243.csv,-0.05084745762711865,19,start,1,1,1,0,1,0.6323350411631878,1,1,3,1,right,20,1,1,1
199,5d7874252f037f0016637125_thisExp_2023-05-28_10h06.52.243.csv,0.0,20,start,1,1,1,1,1,0.9846967645382154,1,1,3,1,right,20,1,1,1
200,5d7874252f037f0016637125_thisExp_2023-05-28_10h06.52.243.csv,-0.9830508474576272,1,images/toothbrush.png,2,1,1,1,1,2.623435948712302,1,0,3,0,left,20,1,1,1
201,5d7874252f037f0016637125_thisExp_2023-05-28_10h06.52.243.csv,-0.8983050847457628,2,images/baby.png,2,0,1,1,1,0.233489843368354,0,0,3,0,left,20,0,1,1
202,5d7874252f037f0016637125_thisExp_2023-05-28_10h06.52.243.csv,-0.8813559322033898,3,images/toothbrush.png,2,1,0,0,1,0.7227059828014898,1,1,3,0,left,20,1,1,0
203,5d7874252f037f0016637125_thisExp_2023-05-28_10h06.52.243.csv,-0.7796610169491526,4,images/toothbrush.png,2,1,1,1,1,0.6724341389624038,1,1,3,0,left,20,1,1,1
204,5d7874252f037f0016637125_thisExp_2023-05-28_10h06.52.243.csv,-0.7288135593220338,5,images/toothbrush.png,2,1,1,1,1,0.026641930946421092,1,1,3,0,left,20,1,1,1
205,5d7874252f037f0016637125_thisExp_2023-05-28_10h06.52.243.csv,-0.6779661016949152,6,images/toothbrush.png,2,1,1,1,1,-0.3960099493374092,1,1,3,0,left,20,1,1,1
206,5d7874252f037f0016637125_thisExp_2023-05-28_10h06.52.243.csv,-0.5932203389830508,7,images/toothbrush.png,2,1,1,1,1,-0.26266430947649305,1,1,3,0,left,20,1,1,1
207,5d7874252f037f0016637125_thisExp_2023-05-28_10h06.52.243.csv,-0.5423728813559322,8,images/toothbrush.png,2,1,1,1,1,-0.5310283310835102,1,1,3,0,left,20,1,1,1
208,5d7874252f037f0016637125_thisExp_2023-05-28_10h06.52.243.csv,-0.5254237288135594,9,images/toothbrush.png,2,1,1,0,1,-0.2231435513142097,1,1,3,0,left,20,1,1,1
209,5d7874252f037f0016637125_thisExp_2023-05-28_10h06.52.243.csv,-0.5084745762711864,10,images/toothbrush.png,2,1,1,0,1,-0.6911491778972723,1,1,3,0,left,20,1,1,1
210,5d7874252f037f0016637125_thisExp_2023-05-28_10h06.52.243.csv,-0.4745762711864407,11,images/toothbrush.png,2,1,1,1,1,-0.616186139423817,1,1,3,0,left,20,1,1,1
211,5d7874252f037f0016637125_thisExp_2023-05-28_10h06.52.243.csv,-0.4576271186440678,12,images/toothbrush.png,2,1,1,0,1,-0.6851790109107684,1,1,3,0,left,20,1,1,1
212,5d7874252f037f0016637125_thisExp_2023-05-28_10h06.52.243.csv,-0.3728813559322034,13,images/toothbrush.png,2,1,1,1,1,-0.1947990783050673,1,1,3,0,left,20,1,1,1
213,5d7874252f037f0016637125_thisExp_2023-05-28_10h06.52.243.csv,-0.3559322033898305,14,images/toothbrush.png,2,1,1,0,1,-0.5259392615760389,1,1,3,0,left,20,1,1,1
214,5d7874252f037f0016637125_thisExp_2023-05-28_10h06.52.243.csv,-0.3389830508474576,15,images/toothbrush.png,2,1,1,0,1,-0.5869869847315546,1,1,3,0,left,20,1,1,1
215,5d7874252f037f0016637125_thisExp_2023-05-28_10h06.52.243.csv,-0.2711864406779661,16,images/toothbrush.png,2,1,1,1,1,-0.48288625507674926,1,1,3,0,left,20,1,1,1
216,5d7874252f037f0016637125_thisExp_2023-05-28_10h06.52.243.csv,-0.0847457627118644,17,images/toothbrush.png,2,1,1,1,1,-0.3509769228240947,1,1,3,0,left,20,1,1,1
217,5d7874252f037f0016637125_thisExp_2023-05-28_10h06.52.243.csv,-0.06779661016949153,18,images/toothbrush.png,2,1,1,0,1,-0.5568695622673976,1,1,3,0,left,20,1,1,1
218,5d7874252f037f0016637125_thisExp_2023-05-28_10h06.52.243.csv,-0.05084745762711865,19,images/toothbrush.png,2,1,1,0,1,-0.4049652330665133,1,1,3,0,left,20,1,1,1
219,5d7874252f037f0016637125_thisExp_2023-05-28_10h06.52.243.csv,0.0,20,images/toothbrush.png,2,1,1,1,1,-0.7194911558995473,1,1,3,0,left,20,1,1,1
220,5d7874252f037f0016637125_thisExp_2023-05-28_10h06.52.243.csv,-0.9830508474576272,1,images/car.png,3,1,1,1,1,0.16805358499624976,0,0,3,0,left,20,1,1,1
221,5d7874252f037f0016637125_thisExp_2023-05-28_10h06.52.243.csv,-0.8983050847457628,2,images/backpack.png,3,0,1,1,1,0.9423482661934446,0,0,3,0,space,20,0,0,1
222,5d7874252f037f0016637125_thisExp_2023-05-28_10h06.52.243.csv,-0.8813559322033898,3,images/car.png,3,1,0,0,1,-2.2164073967529934,0,1,3,0,left,20,1,1,0
223,5d7874252f037f0016637125_thisExp_2023-05-28_10h06.52.243.csv,-0.7796610169491526,4,images/car.png,3,1,1,1,1,0.09712671073072282,0,1,3,0,left,20,1,1,1
224,5d7874252f037f0016637125_thisExp_2023-05-28_10h06.52.243.csv,-0.7288135593220338,5,images/car.png,3,1,1,1,1,-0.5851900390548529,0,1,3,0,left,20,1,1,1
225,5d7874252f037f0016637125_thisExp_2023-05-28_10h06.52.243.csv,-0.6779661016949152,6,images/car.png,3,1,1,1,1,-0.4155154439616658,0,0,3,0,left,20,1,1,1
226,5d7874252f037f0016637125_thisExp_2023-05-28_10h06.52.243.csv,-0.5932203389830508,7,images/car.png,3,1,1,1,1,-0.24079848655293046,0,1,3,0,left,20,1,1,1
227,5d7874252f037f0016637125_thisExp_2023-05-28_10h06.52.243.csv,-0.5423728813559322,8,images/car.png,3,1,1,1,1,-0.3974969384589874,0,0,3,0,left,20,1,1,1
228,5d7874252f037f0016637125_thisExp_2023-05-28_10h06.52.243.csv,-0.5254237288135594,9,images/car.png,3,1,1,0,1,-0.6311117896404926,0,0,3,0,left,20,1,1,1
229,5d7874252f037f0016637125_thisExp_2023-05-28_10h06.52.243.csv,-0.5084745762711864,10,images/car.png,3,1,1,0,1,-0.5412848312506993,0,0,3,0,left,20,1,1,1
230,5d7874252f037f0016637125_thisExp_2023-05-28_10h06.52.243.csv,-0.4745762711864407,11,images/car.png,3,1,1,1,1,-0.5141645250315053,0,0,3,0,left,20,1,1,1
231,5d7874252f037f0016637125_thisExp_2023-05-28_10h06.52.243.csv,-0.4576271186440678,12,images/car.png,3,1,1,0,1,-0.5869869847315546,0,0,3,0,left,20,1,1,1
232,5d7874252f037f0016637125_thisExp_2023-05-28_10h06.52.243.csv,-0.3728813559322034,13,images/car.png,3,1,1,1,1,-0.4462871026284195,0,0,3,0,left,20,1,1,1
233,5d7874252f037f0016637125_thisExp_2023-05-28_10h06.52.243.csv,-0.3559322033898305,14,images/car.png,3,1,1,0,1,-0.5041810810473222,0,0,3,0,left,20,1,1,1
234,5d7874252f037f0016637125_thisExp_2023-05-28_10h06.52.243.csv,-0.3389830508474576,15,images/car.png,3,1,1,0,1,-0.3797973613595865,0,0,3,0,left,20,1,1,1
235,5d7874252f037f0016637125_thisExp_2023-05-28_10h06.52.243.csv,-0.2711864406779661,16,images/car.png,3,1,1,1,1,-0.5762534290884459,0,0,3,0,left,20,1,1,1
236,5d7874252f037f0016637125_thisExp_2023-05-28_10h06.52.243.csv,-0.0847457627118644,17,images/car.png,3,1,1,1,1,-0.5058380822549516,0,0,3,0,left,20,1,1,1
237,5d7874252f037f0016637125_thisExp_2023-05-28_10h06.52.243.csv,-0.06779661016949153,18,images/car.png,3,1,1,0,1,-0.6106459590482015,0,0,3,0,left,20,1,1,1
238,5d7874252f037f0016637125_thisExp_2023-05-28_10h06.52.243.csv,-0.05084745762711865,19,images/car.png,3,1,1,0,1,-0.10203272556515161,0,0,3,0,left,20,1,1,1
239,5d7874252f037f0016637125_thisExp_2023-05-28_10h06.52.243.csv,0.0,20,images/car.png,3,1,1,1,1,-0.6443570163905132,0,1,3,0,left,20,1,1,1
240,5f653cb18aad310a9ee7c32d_thisExp_2023-05-28_10h51.39.394.csv,-0.9491525423728814,1,start,1,1,0,1,1,-0.3768776512562517,1,0,3,1,space,77,0,0,0
241,5f653cb18aad310a9ee7c32d_thisExp_2023-05-28_10h51.39.394.csv,-0.8983050847457628,2,start,1,0,1,1,1,-0.23281517101094082,1,1,3,1,space,77,0,0,0
242,5f653cb18aad310a9ee7c32d_thisExp_2023-05-28_10h51.39.394.csv,-0.8813559322033898,3,start,1,1,0,0,1,0.3541718137206139,1,1,3,1,space,77,0,0,0
243,5f653cb18aad310a9ee7c32d_thisExp_2023-05-28_10h51.39.394.csv,-0.7457627118644068,4,start,1,0,1,1,1,0.3743871525373029,1,1,3,1,space,77,0,0,0
244,5f653cb18aad310a9ee7c32d_thisExp_2023-05-28_10h51.39.394.csv,-0.7288135593220338,5,start,1,0,0,0,1,-0.4636240222816965,1,1,3,1,space,77,0,0,0
245,5f653cb18aad310a9ee7c32d_thisExp_2023-05-28_10h51.39.394.csv,-0.6949152542372882,6,start,1,0,0,1,1,-0.48499544706497255,1,1,3,1,space,77,0,0,0
246,5f653cb18aad310a9ee7c32d_thisExp_2023-05-28_10h51.39.394.csv,-0.6271186440677966,7,start,1,0,0,1,1,-0.2824955457644808,1,1,3,1,space,77,0,0,0
247,5f653cb18aad310a9ee7c32d_thisExp_2023-05-28_10h51.39.394.csv,-0.6101694915254238,8,start,1,0,0,0,1,-0.2975977372391573,1,1,3,1,space,77,0,0,0
248,5f653cb18aad310a9ee7c32d_thisExp_2023-05-28_10h51.39.394.csv,-0.5932203389830508,9,start,1,1,0,0,1,-0.5289895943936619,1,1,3,1,space,77,0,0,0
249,5f653cb18aad310a9ee7c32d_thisExp_2023-05-28_10h51.39.394.csv,-0.5084745762711864,10,start,1,0,1,1,1,-0.6104618139413374,1,1,3,1,space,77,0,0,0
250,5f653cb18aad310a9ee7c32d_thisExp_2023-05-28_10h51.39.394.csv,-0.4576271186440678,11,start,1,0,0,1,1,-0.590410103108833,1,1,3,1,space,77,0,0,0
251,5f653cb18aad310a9ee7c32d_thisExp_2023-05-28_10h51.39.394.csv,-0.423728813559322,12,start,1,0,0,1,1,-0.5677487711656117,1,1,3,1,space,77,0,0,0
252,5f653cb18aad310a9ee7c32d_thisExp_2023-05-28_10h51.39.394.csv,-0.4067796610169492,13,start,1,0,0,0,1,-0.5181859781722831,1,1,3,1,space,77,0,0,0
253,5f653cb18aad310a9ee7c32d_thisExp_2023-05-28_10h51.39.394.csv,-0.3898305084745763,14,start,1,1,0,0,1,-0.7333443703113584,1,1,3,1,space,77,0,0,0
254,5f653cb18aad310a9ee7c32d_thisExp_2023-05-28_10h51.39.394.csv,-0.3728813559322034,15,start,1,0,1,0,1,-0.8898922580196241,1,1,3,1,space,77,0,0,0
255,5f653cb18aad310a9ee7c32d_thisExp_2023-05-28_10h51.39.394.csv,-0.1864406779661017,16,start,1,1,0,1,1,-0.7539593199567027,1,1,3,1,space,77,0,0,0
256,5f653cb18aad310a9ee7c32d_thisExp_2023-05-28_10h51.39.394.csv,-0.13559322033898305,17,start,1,0,1,1,1,-0.6877617082836074,1,1,3,1,space,77,0,0,0
257,5f653cb18aad310a9ee7c32d_thisExp_2023-05-28_10h51.39.394.csv,-0.0847457627118644,18,start,1,0,0,1,1,-0.2926276148447954,1,1,3,1,space,77,0,0,0
258,5f653cb18aad310a9ee7c32d_thisExp_2023-05-28_10h51.39.394.csv,-0.05084745762711865,19,start,1,0,0,1,1,-0.40391630811831397,1,1,3,1,space,77,0,0,0
259,5f653cb18aad310a9ee7c32d_thisExp_2023-05-28_10h51.39.394.csv,-0.01694915254237288,20,start,1,0,0,1,1,0.15751643787498354,1,1,3,1,space,77,0,0,0
260,5f653cb18aad310a9ee7c32d_thisExp_2023-05-28_10h51.39.394.csv,-0.9491525423728814,1,images/toothbrush.png,2,1,0,1,1,-0.18910450909078697,1,0,3,0,space,77,0,0,0
261,5f653cb18aad310a9ee7c32d_thisExp_2023-05-28_10h51.39.394.csv,-0.8983050847457628,2,images/baby.png,2,0,1,1,1,-0.6774707011749377,0,0,3,0,space,77,0,0,0
262,5f653cb18aad310a9ee7c32d_thisExp_2023-05-28_10h51.39.394.csv,-0.8813559322033898,3,images/toothbrush.png,2,1,0,0,1,-0.0950802062502699,1,1,3,0,space,77,0,0,0
263,5f653cb18aad310a9ee7c32d_thisExp_2023-05-28_10h51.39.394.csv,-0.7457627118644068,4,images/baby.png,2,0,1,1,1,-0.7535343305750405,0,1,3,0,space,77,0,0,0
264,5f653cb18aad310a9ee7c32d_thisExp_2023-05-28_10h51.39.394.csv,-0.7288135593220338,5,images/toothbrush.png,2,0,0,0,1,-0.8432726391375831,1,1,3,0,space,77,0,0,0
265,5f653cb18aad310a9ee7c32d_thisExp_2023-05-28_10h51.39.394.csv,-0.6949152542372882,6,images/baby.png,2,0,0,1,1,-0.5476625138179644,0,1,3,0,space,77,0,0,0
266,5f653cb18aad310a9ee7c32d_thisExp_2023-05-28_10h51.39.394.csv,-0.6271186440677966,7,images/baby.png,2,0,0,1,1,-0.818483671871243,0,1,3,0,space,77,0,0,0
267,5f653cb18aad310a9ee7c32d_thisExp_2023-05-28_10h51.39.394.csv,-0.6101694915254238,8,images/baby.png,2,0,0,0,1,-1.1625110145183415,0,1,3,0,space,77,0,0,0
268,5f653cb18aad310a9ee7c32d_thisExp_2023-05-28_10h51.39.394.csv,-0.5932203389830508,9,images/toothbrush.png,2,1,0,0,1,-0.8698843590599994,1,1,3,0,space,77,0,0,0
269,5f653cb18aad310a9ee7c32d_thisExp_2023-05-28_10h51.39.394.csv,-0.5084745762711864,10,images/baby.png,2,0,1,1,1,-0.6545035569677408,0,1,3,0,space,77,0,0,0
270,5f653cb18aad310a9ee7c32d_thisExp_2023-05-28_10h51.39.394.csv,-0.4576271186440678,11,images/baby.png,2,0,0,1,1,-1.1141321003261466,0,1,3,0,space,77,0,0,0
271,5f653cb18aad310a9ee7c32d_thisExp_2023-05-28_10h51.39.394.csv,-0.423728813559322,12,images/baby.png,2,0,0,1,1,-0.6610672870965336,0,1,3,0,space,77,0,0,0
272,5f653cb18aad310a9ee7c32d_thisExp_2023-05-28_10h51.39.394.csv,-0.4067796610169492,13,images/baby.png,2,0,0,0,1,-0.8843076860211043,0,1,3,0,space,77,0,0,0
273,5f653cb18aad310a9ee7c32d_thisExp_2023-05-28_10h51.39.394.csv,-0.3898305084745763,14,images/toothbrush.png,2,1,0,0,1,-0.8390982360442496,1,1,3,0,space,77,0,0,0
274,5f653cb18aad310a9ee7c32d_thisExp_2023-05-28_10h51.39.394.csv,-0.3728813559322034,15,images/baby.png,2,0,1,0,1,-1.0111510128981152,0,1,3,0,space,77,0,0,0
275,5f653cb18aad310a9ee7c32d_thisExp_2023-05-28_10h51.39.394.csv,-0.1864406779661017,16,images/toothbrush.png,2,1,0,1,1,-1.2167203771484385,1,1,3,0,space,77,0,0,0
276,5f653cb18aad310a9ee7c32d_thisExp_2023-05-28_10h51.39.394.csv,-0.13559322033898305,17,images/toothbrush.png,2,0,1,1,1,-1.1943525609489454,1,1,3,0,space,77,0,0,0
277,5f653cb18aad310a9ee7c32d_thisExp_2023-05-28_10h51.39.394.csv,-0.0847457627118644,18,images/baby.png,2,0,0,1,1,-1.3413209954771594,0,1,3,0,space,77,0,0,0
278,5f653cb18aad310a9ee7c32d_thisExp_2023-05-28_10h51.39.394.csv,-0.05084745762711865,19,images/toothbrush.png,2,0,0,1,1,-1.347843174745638,1,1,3,0,space,77,0,0,0
279,5f653cb18aad310a9ee7c32d_thisExp_2023-05-28_10h51.39.394.csv,-0.01694915254237288,20,images/baby.png,2,0,0,1,1,-1.1132184410574717,0,1,3,0,space,77,0,0,0
280,5f653cb18aad310a9ee7c32d_thisExp_2023-05-28_10h51.39.394.csv,-0.9491525423728814,1,images/car.png,3,1,0,1,1,0.5740820734010056,0,0,3,0,left,77,0,1,0
281,5f653cb18aad310a9ee7c32d_thisExp_2023-05-28_10h51.39.394.csv,-0.8983050847457628,2,images/bowtie.png,3,0,1,1,1,1.7964816355633844,0,0,3,0,space,77,0,0,0
282,5f653cb18aad310a9ee7c32d_thisExp_2023-05-28_10h51.39.394.csv,-0.8813559322033898,3,images/car.png,3,1,0,0,1,0.6590214658305694,0,0,3,0,left,77,0,1,0
283,5f653cb18aad310a9ee7c32d_thisExp_2023-05-28_10h51.39.394.csv,-0.7457627118644068,4,images/bowtie.png,3,0,1,1,1,1.2127739602790046,0,1,3,0,space,77,0,0,0
284,5f653cb18aad310a9ee7c32d_thisExp_2023-05-28_10h51.39.394.csv,-0.7288135593220338,5,images/backpack.png,3,0,0,0,1,0.8015081902300102,0,0,3,0,space,77,0,0,0
285,5f653cb18aad310a9ee7c32d_thisExp_2023-05-28_10h51.39.394.csv,-0.6949152542372882,6,images/bowtie.png,3,0,0,1,1,0.3102749211044154,0,0,3,0,space,77,0,0,0
286,5f653cb18aad310a9ee7c32d_thisExp_2023-05-28_10h51.39.394.csv,-0.6271186440677966,7,images/bowtie.png,3,0,0,1,1,0.0852598439508234,0,0,3,0,space,77,0,0,0
287,5f653cb18aad310a9ee7c32d_thisExp_2023-05-28_10h51.39.394.csv,-0.6101694915254238,8,images/bowtie.png,3,0,0,0,1,0.20032518123352952,0,0,3,0,space,77,0,0,0
288,5f653cb18aad310a9ee7c32d_thisExp_2023-05-28_10h51.39.394.csv,-0.5932203389830508,9,images/car.png,3,1,0,0,1,0.08599419316686101,0,1,3,0,space,77,0,0,0
289,5f653cb18aad310a9ee7c32d_thisExp_2023-05-28_10h51.39.394.csv,-0.5084745762711864,10,images/bowtie.png,3,0,1,1,1,0.18498467421343837,0,0,3,0,space,77,0,0,0
290,5f653cb18aad310a9ee7c32d_thisExp_2023-05-28_10h51.39.394.csv,-0.4576271186440678,11,images/backpack.png,3,0,0,1,1,0.14979836508839456,0,0,3,0,space,77,0,0,0
291,5f653cb18aad310a9ee7c32d_thisExp_2023-05-28_10h51.39.394.csv,-0.423728813559322,12,images/backpack.png,3,0,0,1,1,0.02479016880721869,0,1,3,0,space,77,0,0,0
292,5f653cb18aad310a9ee7c32d_thisExp_2023-05-28_10h51.39.394.csv,-0.4067796610169492,13,images/backpack.png,3,0,0,0,1,0.04716980447638993,0,1,3,0,space,77,0,0,0
293,5f653cb18aad310a9ee7c32d_thisExp_2023-05-28_10h51.39.394.csv,-0.3898305084745763,14,images/car.png,3,1,0,0,1,0.04945660871259249,0,1,3,0,space,77,0,0,0
294,5f653cb18aad310a9ee7c32d_thisExp_2023-05-28_10h51.39.394.csv,-0.3728813559322034,15,images/bowtie.png,3,0,1,0,1,-0.16853700182333795,0,1,3,0,space,77,0,0,0
295,5f653cb18aad310a9ee7c32d_thisExp_2023-05-28_10h51.39.394.csv,-0.1864406779661017,16,images/car.png,3,1,0,1,1,0.03343477608623742,0,0,3,0,space,77,0,0,0
296,5f653cb18aad310a9ee7c32d_thisExp_2023-05-28_10h51.39.394.csv,-0.13559322033898305,17,images/backpack.png,3,0,1,1,1,0.1507448866924255,0,1,3,0,space,77,0,0,0
297,5f653cb18aad310a9ee7c32d_thisExp_2023-05-28_10h51.39.394.csv,-0.0847457627118644,18,images/bowtie.png,3,0,0,1,1,0.009554212804811711,0,0,3,0,space,77,0,0,0
298,5f653cb18aad310a9ee7c32d_thisExp_2023-05-28_10h51.39.394.csv,-0.05084745762711865,19,images/car.png,3,0,0,1,1,-0.2427087068090498,0,1,3,0,space,77,0,0,0
299,5f653cb18aad310a9ee7c32d_thisExp_2023-05-28_10h51.39.394.csv,-0.01694915254237288,20,images/backpack.png,3,0,0,1,1,0.11627078166538649,0,1,3,0,space,77,0,0,0
300,6160668abf9c1d7ddc705eae_thisExp_2023-05-28_08h39.29.284.csv,-1.0,1,start,1,0,0,1,1,2.75429745226753,1,0,3,1,space,49,0,0,0
301,6160668abf9c1d7ddc705eae_thisExp_2023-05-28_08h39.29.284.csv,-0.9491525423728814,2,start,1,1,0,1,1,2.9813797673295905,1,0,3,1,right,49,1,1,0
302,6160668abf9c1d7ddc705eae_thisExp_2023-05-28_08h39.29.284.csv,-0.8983050847457628,3,start,1,0,1,1,1,2.4072153420721287,1,1,3,1,right,49,1,1,1
303,6160668abf9c1d7ddc705eae_thisExp_2023-05-28_08h39.29.284.csv,-0.8813559322033898,4,start,1,1,0,0,1,1.6262950295005232,1,1,3,1,right,49,1,1,1
304,6160668abf9c1d7ddc705eae_thisExp_2023-05-28_08h39.29.284.csv,-0.864406779661017,5,start,1,1,1,0,1,-0.26396554583446485,1,1,3,1,right,49,1,1,1
305,6160668abf9c1d7ddc705eae_thisExp_2023-05-28_08h39.29.284.csv,-0.8305084745762712,6,start,1,1,1,1,1,1.2041727843286023,1,1,3,1,right,49,1,1,1
306,6160668abf9c1d7ddc705eae_thisExp_2023-05-28_08h39.29.284.csv,-0.8135593220338984,7,start,1,1,1,0,1,1.0466169935497294,1,1,3,1,right,49,1,1,1
307,6160668abf9c1d7ddc705eae_thisExp_2023-05-28_08h39.29.284.csv,-0.711864406779661,8,start,1,1,1,1,1,1.8457740575342934,1,1,3,1,right,49,1,1,1
308,6160668abf9c1d7ddc705eae_thisExp_2023-05-28_08h39.29.284.csv,-0.6440677966101694,9,start,1,1,1,1,1,1.2991011494175133,1,1,3,1,right,49,1,1,1
309,6160668abf9c1d7ddc705eae_thisExp_2023-05-28_08h39.29.284.csv,-0.5932203389830508,10,start,1,1,1,1,1,0.48057258059496977,1,1,3,1,right,49,1,1,1
310,6160668abf9c1d7ddc705eae_thisExp_2023-05-28_08h39.29.284.csv,-0.4406779661016949,11,start,1,1,1,1,1,1.4194873284756546,1,1,3,1,right,49,1,1,1
311,6160668abf9c1d7ddc705eae_thisExp_2023-05-28_08h39.29.284.csv,-0.423728813559322,12,start,1,1,1,0,1,1.676909627549113,1,1,3,1,right,49,1,1,1
312,6160668abf9c1d7ddc705eae_thisExp_2023-05-28_08h39.29.284.csv,-0.4067796610169492,13,start,1,1,1,0,1,0.14410034397375687,1,1,3,1,right,49,1,1,1
313,6160668abf9c1d7ddc705eae_thisExp_2023-05-28_08h39.29.284.csv,-0.3898305084745763,14,start,1,1,1,0,1,0.11867152971749854,1,1,3,1,right,49,1,1,1
314,6160668abf9c1d7ddc705eae_thisExp_2023-05-28_08h39.29.284.csv,-0.2033898305084746,15,start,1,1,1,1,1,0.5607579925141997,1,1,3,1,right,49,1,1,1
315,6160668abf9c1d7ddc705eae_thisExp_2023-05-28_08h39.29.284.csv,-0.13559322033898305,16,start,1,1,1,1,1,0.9178894532378521,1,1,3,1,right,49,1,1,1
316,6160668abf9c1d7ddc705eae_thisExp_2023-05-28_08h39.29.284.csv,-0.11864406779661017,17,start,1,1,1,0,1,0.3893357261782807,1,1,3,1,right,49,1,1,1
317,6160668abf9c1d7ddc705eae_thisExp_2023-05-28_08h39.29.284.csv,-0.1016949152542373,18,start,1,1,1,0,1,-0.13926206733350766,1,1,3,1,right,49,1,1,1
318,6160668abf9c1d7ddc705eae_thisExp_2023-05-28_08h39.29.284.csv,-0.01694915254237288,19,start,1,1,1,1,1,0.3030631744900833,1,1,3,1,right,49,1,1,1
319,6160668abf9c1d7ddc705eae_thisExp_2023-05-28_08h39.29.284.csv,0.0,20,start,1,1,1,0,1,0.11332868530700327,1,1,3,1,right,49,1,1,1
320,6160668abf9c1d7ddc705eae_thisExp_2023-05-28_08h39.29.284.csv,-1.0,1,images/baby.png,2,0,1,1,1,3.6065027748464855,0,0,3,0,space,49,0,0,1
321,6160668abf9c1d7ddc705eae_thisExp_2023-05-28_08h39.29.284.csv,-0.9491525423728814,2,images/toothbrush.png,2,1,0,1,1,1.2377943528014466,1,0,3,0,left,49,1,1,0
322,6160668abf9c1d7ddc705eae_thisExp_2023-05-28_08h39.29.284.csv,-0.8983050847457628,3,images/toothbrush.png,2,0,1,1,1,-1.1973282616072674,1,1,3,0,left,49,1,1,1
323,6160668abf9c1d7ddc705eae_thisExp_2023-05-28_08h39.29.284.csv,-0.8813559322033898,4,images/toothbrush.png,2,1,0,0,1,-1.3356012468043725,1,1,3,0,left,49,1,1,1
324,6160668abf9c1d7ddc705eae_thisExp_2023-05-28_08h39.29.284.csv,-0.864406779661017,5,images/toothbrush.png,2,1,1,0,1,-1.5095925774643841,1,1,3,0,left,49,1,1,1
325,6160668abf9c1d7ddc705eae_thisExp_2023-05-28_08h39.29.284.csv,-0.8305084745762712,6,images/toothbrush.png,2,1,1,1,1,-0.1210383283770561,1,1,3,0,left,49,1,1,1
326,6160668abf9c1d7ddc705eae_thisExp_2023-05-28_08h39.29.284.csv,-0.8135593220338984,7,images/toothbrush.png,2,1,1,0,1,-1.6347557204183902,1,1,3,0,left,49,1,1,1
327,6160668abf9c1d7ddc705eae_thisExp_2023-05-28_08h39.29.284.csv,-0.711864406779661,8,images/toothbrush.png,2,1,1,1,1,-0.28634962721800233,1,1,3,0,left,49,1,1,1
328,6160668abf9c1d7ddc705eae_thisExp_2023-05-28_08h39.29.284.csv,-0.6440677966101694,9,images/toothbrush.png,2,1,1,1,1,-1.7037485919053417,1,1,3,0,left,49,1,1,1
329,6160668abf9c1d7ddc705eae_thisExp_2023-05-28_08h39.29.284.csv,-0.5932203389830508,10,images/toothbrush.png,2,1,1,1,1,-1.903808973036678,1,1,3,0,left,49,1,1,1
330,6160668abf9c1d7ddc705eae_thisExp_2023-05-28_08h39.29.284.csv,-0.4406779661016949,11,images/toothbrush.png,2,1,1,1,1,-0.7256703722655053,1,1,3,0,left,49,1,1,1
331,6160668abf9c1d7ddc705eae_thisExp_2023-05-28_08h39.29.284.csv,-0.423728813559322,12,images/toothbrush.png,2,1,1,0,1,-1.8971199848858813,1,1,3,0,left,49,1,1,1
332,6160668abf9c1d7ddc705eae_thisExp_2023-05-28_08h39.29.284.csv,-0.4067796610169492,13,images/toothbrush.png,2,1,1,0,1,-1.8904754421672127,1,1,3,0,left,49,1,1,1
333,6160668abf9c1d7ddc705eae_thisExp_2023-05-28_08h39.29.284.csv,-0.3898305084745763,14,images/toothbrush.png,2,1,1,0,1,-1.7897614665653818,1,1,3,0,left,49,1,1,1
334,6160668abf9c1d7ddc705eae_thisExp_2023-05-28_08h39.29.284.csv,-0.2033898305084746,15,images/toothbrush.png,2,1,1,1,1,-0.05024121643674679,1,1,3,0,left,49,1,1,1
335,6160668abf9c1d7ddc705eae_thisExp_2023-05-28_08h39.29.284.csv,-0.13559322033898305,16,images/toothbrush.png,2,1,1,1,1,-1.8904754421672127,1,1,3,0,left,49,1,1,1
336,6160668abf9c1d7ddc705eae_thisExp_2023-05-28_08h39.29.284.csv,-0.11864406779661017,17,images/toothbrush.png,2,1,1,0,1,-1.8838747581358606,1,1,3,0,left,49,1,1,1
337,6160668abf9c1d7ddc705eae_thisExp_2023-05-28_08h39.29.284.csv,-0.1016949152542373,18,images/toothbrush.png,2,1,1,0,1,-1.995100393246085,1,1,3,0,left,49,1,1,1
338,6160668abf9c1d7ddc705eae_thisExp_2023-05-28_08h39.29.284.csv,-0.01694915254237288,19,images/toothbrush.png,2,1,1,1,1,-2.120263536200091,1,1,3,0,left,49,1,1,1
339,6160668abf9c1d7ddc705eae_thisExp_2023-05-28_08h39.29.284.csv,0.0,20,images/toothbrush.png,2,1,1,0,1,-1.995100393246085,1,1,3,0,left,49,1,1,1
340,6160668abf9c1d7ddc705eae_thisExp_2023-05-28_08h39.29.284.csv,-1.0,1,images/backpack.png,3,0,1,1,1,1.3855440797291865,0,0,3,0,space,49,0,0,1
341,6160668abf9c1d7ddc705eae_thisExp_2023-05-28_08h39.29.284.csv,-0.9491525423728814,2,images/car.png,3,1,0,1,1,-0.05129329438755058,0,0,3,0,left,49,1,1,0
342,6160668abf9c1d7ddc705eae_thisExp_2023-05-28_08h39.29.284.csv,-0.8983050847457628,3,images/car.png,3,0,1,1,1,-1.324258970200438,0,0,3,0,right,49,1,1,1
343,6160668abf9c1d7ddc705eae_thisExp_2023-05-28_08h39.29.284.csv,-0.8813559322033898,4,images/car.png,3,1,0,0,1,-1.1425641761972924,0,1,3,0,left,49,1,1,1
344,6160668abf9c1d7ddc705eae_thisExp_2023-05-28_08h39.29.284.csv,-0.864406779661017,5,images/car.png,3,1,1,0,1,-1.7719568419318752,0,0,3,0,left,49,1,1,1
345,6160668abf9c1d7ddc705eae_thisExp_2023-05-28_08h39.29.284.csv,-0.8305084745762712,6,images/car.png,3,1,1,1,1,-0.8722738464573808,0,0,3,0,left,49,1,1,1
346,6160668abf9c1d7ddc705eae_thisExp_2023-05-28_08h39.29.284.csv,-0.8135593220338984,7,images/car.png,3,1,1,0,1,-1.8904754421672127,0,0,3,0,left,49,1,1,1
347,6160668abf9c1d7ddc705eae_thisExp_2023-05-28_08h39.29.284.csv,-0.711864406779661,8,images/car.png,3,1,1,1,1,-1.2623083813388996,0,0,3,0,left,49,1,1,1
348,6160668abf9c1d7ddc705eae_thisExp_2023-05-28_08h39.29.284.csv,-0.6440677966101694,9,images/car.png,3,1,1,1,1,-2.0099154790312257,0,1,3,0,left,49,1,1,1
349,6160668abf9c1d7ddc705eae_thisExp_2023-05-28_08h39.29.284.csv,-0.5932203389830508,10,images/car.png,3,1,1,1,1,-2.017406150760383,0,1,3,0,left,49,1,1,1
350,6160668abf9c1d7ddc705eae_thisExp_2023-05-28_08h39.29.284.csv,-0.4406779661016949,11,images/car.png,3,1,1,1,1,-1.4524341636244356,0,0,3,0,left,49,1,1,1
351,6160668abf9c1d7ddc705eae_thisExp_2023-05-28_08h39.29.284.csv,-0.423728813559322,12,images/car.png,3,1,1,0,1,-2.0099154790312257,0,0,3,0,left,49,1,1,1
352,6160668abf9c1d7ddc705eae_thisExp_2023-05-28_08h39.29.284.csv,-0.4067796610169492,13,images/car.png,3,1,1,0,1,-2.017406150760383,0,0,3,0,left,49,1,1,1
353,6160668abf9c1d7ddc705eae_thisExp_2023-05-28_08h39.29.284.csv,-0.3898305084745763,14,images/car.png,3,1,1,0,1,-1.851509473633829,0,0,3,0,left,49,1,1,1
354,6160668abf9c1d7ddc705eae_thisExp_2023-05-28_08h39.29.284.csv,-0.2033898305084746,15,images/car.png,3,1,1,1,1,-1.8263509139976741,0,1,3,0,left,49,1,1,1
355,6160668abf9c1d7ddc705eae_thisExp_2023-05-28_08h39.29.284.csv,-0.13559322033898305,16,images/car.png,3,1,1,1,1,-1.987774353154012,0,0,3,0,left,49,1,1,1
356,6160668abf9c1d7ddc705eae_thisExp_2023-05-28_08h39.29.284.csv,-0.11864406779661017,17,images/car.png,3,1,1,0,1,-2.0325579557809856,0,0,3,0,left,49,1,1,1
357,6160668abf9c1d7ddc705eae_thisExp_2023-05-28_08h39.29.284.csv,-0.1016949152542373,18,images/car.png,3,1,1,0,1,-1.9805015938249322,0,0,3,0,left,49,1,1,1
358,6160668abf9c1d7ddc705eae_thisExp_2023-05-28_08h39.29.284.csv,-0.01694915254237288,19,images/car.png,3,1,1,1,1,-1.8904754421672127,0,0,3,0,left,49,1,1,1
359,6160668abf9c1d7ddc705eae_thisExp_2023-05-28_08h39.29.284.csv,0.0,20,images/car.png,3,1,1,0,1,-1.9449106487222299,0,0,3,0,left,49,1,1,1
360,630cc9747cb664e8a03c29f0_thisExp_2023-05-28_13h51.14.155.csv,-0.9322033898305084,1,start,1,0,0,1,1,0.8802904276331134,1,0,3,1,space,35,0,0,0
361,630cc9747cb664e8a03c29f0_thisExp_2023-05-28_13h51.14.155.csv,-0.8983050847457628,2,start,1,1,0,1,1,2.154061882550286,1,0,3,1,right,35,1,1,0
362,630cc9747cb664e8a03c29f0_thisExp_2023-05-28_13h51.14.155.csv,-0.8813559322033898,3,start,1,1,1,0,1,1.4570556680028028,1,0,3,1,space,35,0,0,1
363,630cc9747cb664e8a03c29f0_thisExp_2023-05-28_13h51.14.155.csv,-0.847457627118644,4,start,1,1,1,1,1,1.372017936201082,1,0,3,1,right,35,1,1,0
364,630cc9747cb664e8a03c29f0_thisExp_2023-05-28_13h51.14.155.csv,-0.7966101694915254,5,start,1,1,1,1,1,1.4803082465521382,1,1,3,1,right,35,1,1,1
365,630cc9747cb664e8a03c29f0_thisExp_2023-05-28_13h51.14.155.csv,-0.7796610169491526,6,start,1,1,1,0,1,0.6684445679195735,1,0,3,1,space,35,0,0,1
366,630cc9747cb664e8a03c29f0_thisExp_2023-05-28_13h51.14.155.csv,-0.7457627118644068,7,start,1,0,1,1,1,0.326854707526253,1,1,3,1,space,35,0,0,0
367,630cc9747cb664e8a03c29f0_thisExp_2023-05-28_13h51.14.155.csv,-0.7288135593220338,8,start,1,1,0,0,1,0.9249729322569888,1,0,3,1,right,35,1,1,0
368,630cc9747cb664e8a03c29f0_thisExp_2023-05-28_13h51.14.155.csv,-0.711864406779661,9,start,1,1,1,0,1,0.6660328880683734,1,1,3,1,right,35,1,1,1
369,630cc9747cb664e8a03c29f0_thisExp_2023-05-28_13h51.14.155.csv,-0.6440677966101694,10,start,1,1,1,1,1,1.1778854695626175,1,0,3,1,space,35,0,0,1
370,630cc9747cb664e8a03c29f0_thisExp_2023-05-28_13h51.14.155.csv,-0.6271186440677966,11,start,1,1,1,0,1,0.11760524207426343,1,1,3,1,space,35,0,0,0
371,630cc9747cb664e8a03c29f0_thisExp_2023-05-28_13h51.14.155.csv,-0.6101694915254238,12,start,1,1,1,0,1,0.40139015006613454,1,1,3,1,space,35,0,0,0
372,630cc9747cb664e8a03c29f0_thisExp_2023-05-28_13h51.14.155.csv,-0.559322033898305,13,start,1,0,1,1,1,-0.0795844793428424,1,1,3,1,space,35,0,0,0
373,630cc9747cb664e8a03c29f0_thisExp_2023-05-28_13h51.14.155.csv,-0.4915254237288136,14,start,1,0,0,1,1,0.7522176541369338,1,1,3,1,space,35,0,0,0
374,630cc9747cb664e8a03c29f0_thisExp_2023-05-28_13h51.14.155.csv,-0.2711864406779661,15,start,1,1,0,1,1,1.1133366840664918,1,1,3,1,space,35,0,0,0
375,630cc9747cb664e8a03c29f0_thisExp_2023-05-28_13h51.14.155.csv,-0.2542372881355932,16,start,1,1,1,0,1,0.8253151441373626,1,0,3,1,right,35,1,1,0
376,630cc9747cb664e8a03c29f0_thisExp_2023-05-28_13h51.14.155.csv,-0.22033898305084745,17,start,1,1,1,1,1,1.106613526553595,1,1,3,1,right,35,1,1,1
377,630cc9747cb664e8a03c29f0_thisExp_2023-05-28_13h51.14.155.csv,-0.2033898305084746,18,start,1,1,1,0,1,0.19441480448133783,1,1,3,1,right,35,1,1,1
378,630cc9747cb664e8a03c29f0_thisExp_2023-05-28_13h51.14.155.csv,-0.1016949152542373,19,start,1,1,1,1,1,0.30954140680467446,1,1,3,1,right,35,1,1,1
379,630cc9747cb664e8a03c29f0_thisExp_2023-05-28_13h51.14.155.csv,0.0,20,start,1,1,1,1,1,0.2532458951306533,1,1,3,1,right,35,1,1,1
380,630cc9747cb664e8a03c29f0_thisExp_2023-05-28_13h51.14.155.csv,-0.9322033898305084,1,images/baby.png,2,0,1,1,1,0.9864136313056269,0,0,3,0,space,35,0,0,1
381,630cc9747cb664e8a03c29f0_thisExp_2023-05-28_13h51.14.155.csv,-0.8983050847457628,2,images/toothbrush.png,2,1,0,1,1,-0.7539593199567027,1,0,3,0,left,35,1,1,0
382,630cc9747cb664e8a03c29f0_thisExp_2023-05-28_13h51.14.155.csv,-0.8813559322033898,3,images/toothbrush.png,2,1,1,0,1,0.34436954208157794,1,1,3,0,left,35,0,1,1
383,630cc9747cb664e8a03c29f0_thisExp_2023-05-28_13h51.14.155.csv,-0.847457627118644,4,images/toothbrush.png,2,1,1,1,1,-0.2564418367157244,1,1,3,0,left,35,1,1,0
384,630cc9747cb664e8a03c29f0_thisExp_2023-05-28_13h51.14.155.csv,-0.7966101694915254,5,images/toothbrush.png,2,1,1,1,1,0.279070095603217,1,1,3,0,left,35,1,1,1
385,630cc9747cb664e8a03c29f0_thisExp_2023-05-28_13h51.14.155.csv,-0.7796610169491526,6,images/toothbrush.png,2,1,1,0,1,0.3854664616014744,1,1,3,0,left,35,0,1,1
386,630cc9747cb664e8a03c29f0_thisExp_2023-05-28_13h51.14.155.csv,-0.7457627118644068,7,images/baby.png,2,0,1,1,1,1.322635453009327,0,0,3,0,left,35,0,1,0
387,630cc9747cb664e8a03c29f0_thisExp_2023-05-28_13h51.14.155.csv,-0.7288135593220338,8,images/toothbrush.png,2,1,0,0,1,-0.9276044917744285,1,1,3,0,left,35,1,1,0
388,630cc9747cb664e8a03c29f0_thisExp_2023-05-28_13h51.14.155.csv,-0.711864406779661,9,images/toothbrush.png,2,1,1,0,1,-0.6337468372784979,1,1,3,0,left,35,1,1,1
389,630cc9747cb664e8a03c29f0_thisExp_2023-05-28_13h51.14.155.csv,-0.6440677966101694,10,images/toothbrush.png,2,1,1,1,1,0.2547197347489539,1,1,3,0,left,35,0,1,1
390,630cc9747cb664e8a03c29f0_thisExp_2023-05-28_13h51.14.155.csv,-0.6271186440677966,11,images/toothbrush.png,2,1,1,0,1,0.20212418409013433,1,1,3,0,left,35,0,1,0
391,630cc9747cb664e8a03c29f0_thisExp_2023-05-28_13h51.14.155.csv,-0.6101694915254238,12,images/toothbrush.png,2,1,1,0,1,0.062880898039201,1,1,3,0,left,35,0,1,0
392,630cc9747cb664e8a03c29f0_thisExp_2023-05-28_13h51.14.155.csv,-0.559322033898305,13,images/baby.png,2,0,1,1,1,1.4380800342691211,0,1,3,0,left,35,0,1,0
393,630cc9747cb664e8a03c29f0_thisExp_2023-05-28_13h51.14.155.csv,-0.4915254237288136,14,images/baby.png,2,0,0,1,1,2.2685628443796095,0,0,3,0,right,35,0,1,0
394,630cc9747cb664e8a03c29f0_thisExp_2023-05-28_13h51.14.155.csv,-0.2711864406779661,15,images/toothbrush.png,2,1,0,1,1,0.0764053312024053,1,1,3,0,left,35,0,1,0
395,630cc9747cb664e8a03c29f0_thisExp_2023-05-28_13h51.14.155.csv,-0.2542372881355932,16,images/toothbrush.png,2,1,1,0,1,-0.6167418493575401,1,1,3,0,left,35,1,1,0
396,630cc9747cb664e8a03c29f0_thisExp_2023-05-28_13h51.14.155.csv,-0.22033898305084745,17,images/toothbrush.png,2,1,1,1,1,-0.6369559009102027,1,1,3,0,left,35,1,1,1
397,630cc9747cb664e8a03c29f0_thisExp_2023-05-28_13h51.14.155.csv,-0.2033898305084746,18,images/toothbrush.png,2,1,1,0,1,-1.3763440302667225,1,1,3,0,left,35,1,1,1
398,630cc9747cb664e8a03c29f0_thisExp_2023-05-28_13h51.14.155.csv,-0.1016949152542373,19,images/toothbrush.png,2,1,1,1,1,-1.3505411914140728,1,1,3,0,left,35,1,1,1
399,630cc9747cb664e8a03c29f0_thisExp_2023-05-28_13h51.14.155.csv,0.0,20,images/toothbrush.png,2,1,1,1,1,-1.1248535998733369,1,1,3,0,left,35,1,1,1
400,630cc9747cb664e8a03c29f0_thisExp_2023-05-28_13h51.14.155.csv,-0.9322033898305084,1,images/bowtie.png,3,0,1,1,1,0.4831666157720164,0,0,3,0,space,35,0,0,1
401,630cc9747cb664e8a03c29f0_thisExp_2023-05-28_13h51.14.155.csv,-0.8983050847457628,2,images/car.png,3,1,0,1,1,-0.7841665789471138,0,0,3,0,left,35,1,1,0
402,630cc9747cb664e8a03c29f0_thisExp_2023-05-28_13h51.14.155.csv,-0.8813559322033898,3,images/car.png,3,1,1,0,1,-0.7791408937269214,0,1,3,0,left,35,0,1,1
403,630cc9747cb664e8a03c29f0_thisExp_2023-05-28_13h51.14.155.csv,-0.847457627118644,4,images/car.png,3,1,1,1,1,-0.6225023409906133,0,0,3,0,left,35,1,1,0
404,630cc9747cb664e8a03c29f0_thisExp_2023-05-28_13h51.14.155.csv,-0.7966101694915254,5,images/car.png,3,1,1,1,1,-1.6852396258503821,0,1,3,0,left,35,1,1,1
405,630cc9747cb664e8a03c29f0_thisExp_2023-05-28_13h51.14.155.csv,-0.7796610169491526,6,images/car.png,3,1,1,0,1,-1.156135474911776,0,1,3,0,left,35,0,1,1
406,630cc9747cb664e8a03c29f0_thisExp_2023-05-28_13h51.14.155.csv,-0.7457627118644068,7,images/backpack.png,3,0,1,1,1,-0.8627499649461253,0,0,3,0,left,35,0,1,0
407,630cc9747cb664e8a03c29f0_thisExp_2023-05-28_13h51.14.155.csv,-0.7288135593220338,8,images/car.png,3,1,0,0,1,-1.0785155869689873,0,1,3,0,left,35,1,1,0
408,630cc9747cb664e8a03c29f0_thisExp_2023-05-28_13h51.14.155.csv,-0.711864406779661,9,images/car.png,3,1,1,0,1,-1.287354413264987,0,1,3,0,left,35,1,1,1
409,630cc9747cb664e8a03c29f0_thisExp_2023-05-28_13h51.14.155.csv,-0.6440677966101694,10,images/car.png,3,1,1,1,1,-1.1416241792614008,0,0,3,0,left,35,0,1,1
410,630cc9747cb664e8a03c29f0_thisExp_2023-05-28_13h51.14.155.csv,-0.6271186440677966,11,images/car.png,3,1,1,0,1,-1.23271527319159,0,0,3,0,left,35,0,1,0
411,630cc9747cb664e8a03c29f0_thisExp_2023-05-28_13h51.14.155.csv,-0.6101694915254238,12,images/car.png,3,1,1,0,1,-0.866548639979341,0,0,3,0,left,35,0,1,0
412,630cc9747cb664e8a03c29f0_thisExp_2023-05-28_13h51.14.155.csv,-0.559322033898305,13,images/backpack.png,3,0,1,1,1,0.8558185984307772,0,1,3,0,left,35,0,1,0
413,630cc9747cb664e8a03c29f0_thisExp_2023-05-28_13h51.14.155.csv,-0.4915254237288136,14,images/bowtie.png,3,0,0,1,1,0.3859424416193005,0,0,3,0,left,35,0,1,0
414,630cc9747cb664e8a03c29f0_thisExp_2023-05-28_13h51.14.155.csv,-0.2711864406779661,15,images/car.png,3,1,0,1,1,-0.9923621688254506,0,0,3,0,left,35,0,1,0
415,630cc9747cb664e8a03c29f0_thisExp_2023-05-28_13h51.14.155.csv,-0.2542372881355932,16,images/car.png,3,1,1,0,1,-1.4032370818502027,0,0,3,0,left,35,1,1,0
416,630cc9747cb664e8a03c29f0_thisExp_2023-05-28_13h51.14.155.csv,-0.22033898305084745,17,images/car.png,3,1,1,1,1,-1.6445470895476684,0,1,3,0,left,35,1,1,1
417,630cc9747cb664e8a03c29f0_thisExp_2023-05-28_13h51.14.155.csv,-0.2033898305084746,18,images/car.png,3,1,1,0,1,-1.9819519204025788,0,1,3,0,left,35,1,1,1
418,630cc9747cb664e8a03c29f0_thisExp_2023-05-28_13h51.14.155.csv,-0.1016949152542373,19,images/car.png,3,1,1,1,1,-1.7338679908122774,0,1,3,0,left,35,1,1,1
419,630cc9747cb664e8a03c29f0_thisExp_2023-05-28_13h51.14.155.csv,0.0,20,images/car.png,3,1,1,1,1,-1.946310229076653,0,1,3,0,left,35,1,1,1
420,5d66b39acb411d00170f69d6_thisExp_2023-05-29_05h33.58.743.csv,-1.0,1,start,1,0,0,1,1,2.685429607064676,1,0,3,1,left,43,1,1,0
421,5d66b39acb411d00170f69d6_thisExp_2023-05-29_05h33.58.743.csv,-0.9661016949152542,2,start,1,1,0,1,1,2.074127446856067,1,0,3,1,right,43,1,1,1
422,5d66b39acb411d00170f69d6_thisExp_2023-05-29_05h33.58.743.csv,-0.7966101694915254,3,start,1,1,1,1,1,1.6343256279418794,1,1,3,1,right,43,1,1,1
423,5d66b39acb411d00170f69d6_thisExp_2023-05-29_05h33.58.743.csv,-0.7627118644067796,4,start,1,0,1,1,1,2.3773028791733934,1,0,3,1,left,43,0,1,1
424,5d66b39acb411d00170f69d6_thisExp_2023-05-29_05h33.58.743.csv,-0.7288135593220338,5,start,1,1,0,1,1,0.8730073773577962,1,0,3,1,right,43,0,1,0
425,5d66b39acb411d00170f69d6_thisExp_2023-05-29_05h33.58.743.csv,-0.6271186440677966,6,start,1,1,1,1,1,1.1674851529544852,1,1,3,1,right,43,0,1,0
426,5d66b39acb411d00170f69d6_thisExp_2023-05-29_05h33.58.743.csv,-0.6101694915254238,7,start,1,0,1,0,1,0.017938145131012998,1,0,3,1,space,43,0,0,0
427,5d66b39acb411d00170f69d6_thisExp_2023-05-29_05h33.58.743.csv,-0.5932203389830508,8,start,1,0,0,0,1,0.9277053366894091,1,1,3,1,space,43,0,0,0
428,5d66b39acb411d00170f69d6_thisExp_2023-05-29_05h33.58.743.csv,-0.576271186440678,9,start,1,0,0,0,1,0.27315202066745536,1,1,3,1,space,43,0,0,0
429,5d66b39acb411d00170f69d6_thisExp_2023-05-29_05h33.58.743.csv,-0.5254237288135594,10,start,1,0,0,1,1,0.9563956693704597,1,0,3,1,right,43,0,1,0
430,5d66b39acb411d00170f69d6_thisExp_2023-05-29_05h33.58.743.csv,-0.4915254237288136,11,start,1,1,0,1,1,1.2705467525755774,1,1,3,1,right,43,0,1,0
431,5d66b39acb411d00170f69d6_thisExp_2023-05-29_05h33.58.743.csv,-0.4406779661016949,12,start,1,0,1,1,1,0.4153494301821408,1,1,3,1,right,43,0,1,0
432,5d66b39acb411d00170f69d6_thisExp_2023-05-29_05h33.58.743.csv,-0.3728813559322034,13,start,1,1,0,1,1,0.5437186670680162,1,1,3,1,right,43,0,1,0
433,5d66b39acb411d00170f69d6_thisExp_2023-05-29_05h33.58.743.csv,-0.3389830508474576,14,start,1,1,1,1,1,0.2598996914393293,1,1,3,1,right,43,0,1,0
434,5d66b39acb411d00170f69d6_thisExp_2023-05-29_05h33.58.743.csv,-0.3220338983050847,15,start,1,1,1,0,1,2.200319782243522,1,1,3,1,right,43,0,1,0
435,5d66b39acb411d00170f69d6_thisExp_2023-05-29_05h33.58.743.csv,-0.2711864406779661,16,start,1,1,1,1,1,0.49207084728234285,1,1,3,1,right,43,0,1,0
436,5d66b39acb411d00170f69d6_thisExp_2023-05-29_05h33.58.743.csv,-0.22033898305084745,17,start,1,1,1,1,1,0.3269268237776815,1,1,3,1,right,43,0,1,0
437,5d66b39acb411d00170f69d6_thisExp_2023-05-29_05h33.58.743.csv,-0.0847457627118644,18,start,1,0,1,1,1,0.5763324259681104,1,1,3,1,right,43,0,1,0
438,5d66b39acb411d00170f69d6_thisExp_2023-05-29_05h33.58.743.csv,-0.06779661016949153,19,start,1,1,0,0,1,0.030820142339886364,1,1,3,1,right,43,1,1,0
439,5d66b39acb411d00170f69d6_thisExp_2023-05-29_05h33.58.743.csv,-0.05084745762711865,20,start,1,1,1,0,1,0.9860406500622593,1,1,3,1,right,43,1,1,1
440,5d66b39acb411d00170f69d6_thisExp_2023-05-29_05h33.58.743.csv,-1.0,1,images/baby.png,2,0,1,1,1,2.848217858265442,0,0,3,0,left,43,1,1,1
441,5d66b39acb411d00170f69d6_thisExp_2023-05-29_05h33.58.743.csv,-0.9661016949152542,2,images/toothbrush.png,2,1,0,1,1,1.3694024934496725,1,0,3,0,left,43,1,1,1
442,5d66b39acb411d00170f69d6_thisExp_2023-05-29_05h33.58.743.csv,-0.7966101694915254,3,images/toothbrush.png,2,1,1,1,1,-0.41158378911634164,1,1,3,0,left,43,1,1,1
443,5d66b39acb411d00170f69d6_thisExp_2023-05-29_05h33.58.743.csv,-0.7627118644067796,4,images/baby.png,2,0,1,1,1,0.6819851158537534,0,0,3,0,space,43,0,0,1
444,5d66b39acb411d00170f69d6_thisExp_2023-05-29_05h33.58.743.csv,-0.7288135593220338,5,images/toothbrush.png,2,1,0,1,1,-0.0873023284027966,1,0,3,0,space,43,0,0,0
445,5d66b39acb411d00170f69d6_thisExp_2023-05-29_05h33.58.743.csv,-0.6271186440677966,6,images/toothbrush.png,2,1,1,1,1,-0.8677386912919894,1,1,3,0,space,43,0,0,0
446,5d66b39acb411d00170f69d6_thisExp_2023-05-29_05h33.58.743.csv,-0.6101694915254238,7,images/baby.png,2,0,1,0,1,2.8084805836011064,0,1,3,0,space,43,0,0,0
447,5d66b39acb411d00170f69d6_thisExp_2023-05-29_05h33.58.743.csv,-0.5932203389830508,8,images/toothbrush.png,2,0,0,0,1,0.9428937136686891,1,1,3,0,space,43,0,0,0
448,5d66b39acb411d00170f69d6_thisExp_2023-05-29_05h33.58.743.csv,-0.576271186440678,9,images/toothbrush.png,2,0,0,0,1,1.4066360587778053,1,0,3,0,left,43,0,1,0
449,5d66b39acb411d00170f69d6_thisExp_2023-05-29_05h33.58.743.csv,-0.5254237288135594,10,images/toothbrush.png,2,0,0,1,1,-0.9462346082472272,1,0,3,0,space,43,0,0,0
450,5d66b39acb411d00170f69d6_thisExp_2023-05-29_05h33.58.743.csv,-0.4915254237288136,11,images/toothbrush.png,2,1,0,1,1,0.9573942867525722,1,1,3,0,space,43,0,0,0
451,5d66b39acb411d00170f69d6_thisExp_2023-05-29_05h33.58.743.csv,-0.4406779661016949,12,images/toothbrush.png,2,0,1,1,1,-0.7614260213132397,1,1,3,0,space,43,0,0,0
452,5d66b39acb411d00170f69d6_thisExp_2023-05-29_05h33.58.743.csv,-0.3728813559322034,13,images/toothbrush.png,2,1,0,1,1,-1.1976594422693438,1,1,3,0,space,43,0,0,0
453,5d66b39acb411d00170f69d6_thisExp_2023-05-29_05h33.58.743.csv,-0.3389830508474576,14,images/toothbrush.png,2,1,1,1,1,0.14366734981241305,1,1,3,0,space,43,0,0,0
454,5d66b39acb411d00170f69d6_thisExp_2023-05-29_05h33.58.743.csv,-0.3220338983050847,15,images/toothbrush.png,2,1,1,0,1,-0.53785429615391,1,1,3,0,space,43,0,0,0
455,5d66b39acb411d00170f69d6_thisExp_2023-05-29_05h33.58.743.csv,-0.2711864406779661,16,images/toothbrush.png,2,1,1,1,1,-1.0744075999712923,1,1,3,0,space,43,0,0,0
456,5d66b39acb411d00170f69d6_thisExp_2023-05-29_05h33.58.743.csv,-0.22033898305084745,17,images/toothbrush.png,2,1,1,1,1,-1.1294839523351967,1,1,3,0,space,43,0,0,0
457,5d66b39acb411d00170f69d6_thisExp_2023-05-29_05h33.58.743.csv,-0.0847457627118644,18,images/toothbrush.png,2,0,1,1,1,-1.3060055298910878,1,1,3,0,space,43,0,0,0
458,5d66b39acb411d00170f69d6_thisExp_2023-05-29_05h33.58.743.csv,-0.06779661016949153,19,images/toothbrush.png,2,1,0,0,1,0.6156179780507075,1,0,3,0,left,43,1,1,0
459,5d66b39acb411d00170f69d6_thisExp_2023-05-29_05h33.58.743.csv,-0.05084745762711865,20,images/toothbrush.png,2,1,1,0,1,-0.18068290012544608,1,1,3,0,left,43,1,1,1
460,5d66b39acb411d00170f69d6_thisExp_2023-05-29_05h33.58.743.csv,-1.0,1,images/backpack.png,3,0,1,1,1,1.6046665475552093,0,0,3,0,left,43,1,1,1
461,5d66b39acb411d00170f69d6_thisExp_2023-05-29_05h33.58.743.csv,-0.9661016949152542,2,images/car.png,3,1,0,1,1,-0.036041771347265536,0,0,3,0,left,43,1,1,1
462,5d66b39acb411d00170f69d6_thisExp_2023-05-29_05h33.58.743.csv,-0.7966101694915254,3,images/car.png,3,1,1,1,1,-0.28302626091558697,0,0,3,0,left,43,1,1,1
463,5d66b39acb411d00170f69d6_thisExp_2023-05-29_05h33.58.743.csv,-0.7627118644067796,4,images/bowtie.png,3,0,1,1,1,-0.39809235377875135,0,0,3,0,space,43,0,0,1
464,5d66b39acb411d00170f69d6_thisExp_2023-05-29_05h33.58.743.csv,-0.7288135593220338,5,images/car.png,3,1,0,1,1,0.2316671222550866,0,0,3,0,left,43,0,1,0
465,5d66b39acb411d00170f69d6_thisExp_2023-05-29_05h33.58.743.csv,-0.6271186440677966,6,images/car.png,3,1,1,1,1,-0.13937701646864198,0,0,3,0,left,43,0,1,0
466,5d66b39acb411d00170f69d6_thisExp_2023-05-29_05h33.58.743.csv,-0.6101694915254238,7,images/backpack.png,3,0,1,0,1,0.4131025352373757,0,0,3,0,space,43,0,0,0
467,5d66b39acb411d00170f69d6_thisExp_2023-05-29_05h33.58.743.csv,-0.5932203389830508,8,images/backpack.png,3,0,0,0,1,0.18722617612740977,0,0,3,0,space,43,0,0,0
468,5d66b39acb411d00170f69d6_thisExp_2023-05-29_05h33.58.743.csv,-0.576271186440678,9,images/car.png,3,0,0,0,1,0.28608079108480705,0,0,3,0,space,43,0,0,0
469,5d66b39acb411d00170f69d6_thisExp_2023-05-29_05h33.58.743.csv,-0.5254237288135594,10,images/backpack.png,3,0,0,1,1,0.29512927308683046,0,1,3,0,space,43,0,0,0
470,5d66b39acb411d00170f69d6_thisExp_2023-05-29_05h33.58.743.csv,-0.4915254237288136,11,images/car.png,3,1,0,1,1,-0.7182598813750206,0,0,3,0,left,43,0,1,0
471,5d66b39acb411d00170f69d6_thisExp_2023-05-29_05h33.58.743.csv,-0.4406779661016949,12,images/backpack.png,3,0,1,1,1,0.9324002736072233,0,0,3,0,left,43,0,1,0
472,5d66b39acb411d00170f69d6_thisExp_2023-05-29_05h33.58.743.csv,-0.3728813559322034,13,images/car.png,3,1,0,1,1,-0.7765287894989963,0,0,3,0,left,43,0,1,0
473,5d66b39acb411d00170f69d6_thisExp_2023-05-29_05h33.58.743.csv,-0.3389830508474576,14,images/car.png,3,1,1,1,1,-0.7993969804026557,0,0,3,0,left,43,0,1,0
474,5d66b39acb411d00170f69d6_thisExp_2023-05-29_05h33.58.743.csv,-0.3220338983050847,15,images/car.png,3,1,1,0,1,-1.0817551716016867,0,0,3,0,left,43,0,1,0
475,5d66b39acb411d00170f69d6_thisExp_2023-05-29_05h33.58.743.csv,-0.2711864406779661,16,images/car.png,3,1,1,1,1,-1.2023075250068749,0,0,3,0,left,43,0,1,0
476,5d66b39acb411d00170f69d6_thisExp_2023-05-29_05h33.58.743.csv,-0.22033898305084745,17,images/car.png,3,1,1,1,1,-0.909811765776446,0,0,3,0,left,43,0,1,0
477,5d66b39acb411d00170f69d6_thisExp_2023-05-29_05h33.58.743.csv,-0.0847457627118644,18,images/backpack.png,3,0,1,1,1,0.5022287765404725,0,0,3,0,space,43,0,0,0
478,5d66b39acb411d00170f69d6_thisExp_2023-05-29_05h33.58.743.csv,-0.06779661016949153,19,images/car.png,3,1,0,0,1,-0.2119563619236453,0,0,3,0,left,43,1,1,0
479,5d66b39acb411d00170f69d6_thisExp_2023-05-29_05h33.58.743.csv,-0.05084745762711865,20,images/car.png,3,1,1,0,1,-1.0936247471570706,0,0,3,0,left,43,1,1,1
480,5d68c8aa40524c00189e8ac2_thisExp_2023-05-28_10h59.13.522.csv,-0.9830508474576272,1,start,1,1,0,1,1,1.3618735865782086,1,0,3,1,space,45,0,0,0
481,5d68c8aa40524c00189e8ac2_thisExp_2023-05-28_10h59.13.522.csv,-0.9661016949152542,2,start,1,0,1,0,1,0.7121161271075476,1,1,3,1,space,45,0,0,0
482,5d68c8aa40524c00189e8ac2_thisExp_2023-05-28_10h59.13.522.csv,-0.8983050847457628,3,start,1,1,0,1,1,1.537598135211056,1,0,3,1,right,45,1,1,0
483,5d68c8aa40524c00189e8ac2_thisExp_2023-05-28_10h59.13.522.csv,-0.847457627118644,4,start,1,1,1,1,1,2.4483809684385505,1,1,3,1,right,45,1,1,1
484,5d68c8aa40524c00189e8ac2_thisExp_2023-05-28_10h59.13.522.csv,-0.7627118644067796,5,start,1,1,1,1,1,2.6593290345523877,1,1,3,1,right,45,1,1,1
485,5d68c8aa40524c00189e8ac2_thisExp_2023-05-28_10h59.13.522.csv,-0.6779661016949152,6,start,1,1,1,1,1,2.142439814744114,1,1,3,1,right,45,1,1,1
486,5d68c8aa40524c00189e8ac2_thisExp_2023-05-28_10h59.13.522.csv,-0.6610169491525424,7,start,1,1,1,0,1,0.7706173513268441,1,1,3,1,right,45,1,1,1
487,5d68c8aa40524c00189e8ac2_thisExp_2023-05-28_10h59.13.522.csv,-0.5932203389830508,8,start,1,1,1,1,1,0.8913420865101901,1,1,3,1,right,45,1,1,1
488,5d68c8aa40524c00189e8ac2_thisExp_2023-05-28_10h59.13.522.csv,-0.576271186440678,9,start,1,1,1,0,1,0.20790807867143232,1,1,3,1,right,45,1,1,1
489,5d68c8aa40524c00189e8ac2_thisExp_2023-05-28_10h59.13.522.csv,-0.559322033898305,10,start,1,1,1,0,1,0.4826113172848181,1,1,3,1,right,45,1,1,1
490,5d68c8aa40524c00189e8ac2_thisExp_2023-05-28_10h59.13.522.csv,-0.5423728813559322,11,start,1,1,1,0,1,-0.11912143090786334,1,1,3,1,right,45,1,1,1
491,5d68c8aa40524c00189e8ac2_thisExp_2023-05-28_10h59.13.522.csv,-0.5084745762711864,12,start,1,1,1,1,1,0.5180196843462312,1,1,3,1,right,45,1,1,1
492,5d68c8aa40524c00189e8ac2_thisExp_2023-05-28_10h59.13.522.csv,-0.4915254237288136,13,start,1,1,1,0,1,-0.01308523954865548,1,1,3,1,right,45,1,1,1
493,5d68c8aa40524c00189e8ac2_thisExp_2023-05-28_10h59.13.522.csv,-0.4745762711864407,14,start,1,1,1,0,1,-0.342772038769741,1,1,3,1,right,45,1,1,1
494,5d68c8aa40524c00189e8ac2_thisExp_2023-05-28_10h59.13.522.csv,-0.4576271186440678,15,start,1,1,1,0,1,-0.24858957264568465,1,1,3,1,right,45,1,1,1
495,5d68c8aa40524c00189e8ac2_thisExp_2023-05-28_10h59.13.522.csv,-0.3728813559322034,16,start,1,1,1,1,1,0.37404323809982437,1,1,3,1,right,45,1,1,1
496,5d68c8aa40524c00189e8ac2_thisExp_2023-05-28_10h59.13.522.csv,-0.2542372881355932,17,start,1,1,1,1,1,0.9638611047815717,1,1,3,1,right,45,1,1,1
497,5d68c8aa40524c00189e8ac2_thisExp_2023-05-28_10h59.13.522.csv,-0.23728813559322035,18,start,1,1,1,0,1,0.07436508195530674,1,1,3,1,right,45,1,1,1
498,5d68c8aa40524c00189e8ac2_thisExp_2023-05-28_10h59.13.522.csv,-0.1694915254237288,19,start,1,1,1,1,1,0.6862232654871211,1,1,3,1,right,45,1,1,1
499,5d68c8aa40524c00189e8ac2_thisExp_2023-05-28_10h59.13.522.csv,-0.0847457627118644,20,start,1,1,1,1,1,0.7672801524011724,1,1,3,1,right,45,1,1,1
500,5d68c8aa40524c00189e8ac2_thisExp_2023-05-28_10h59.13.522.csv,-0.9830508474576272,1,images/toothbrush.png,2,1,1,1,1,1.8556727949717078,1,0,3,0,space,45,0,0,1
501,5d68c8aa40524c00189e8ac2_thisExp_2023-05-28_10h59.13.522.csv,-0.9661016949152542,2,images/baby.png,2,0,1,0,1,2.2463850433058465,0,0,3,0,space,45,0,0,0
502,5d68c8aa40524c00189e8ac2_thisExp_2023-05-28_10h59.13.522.csv,-0.8983050847457628,3,images/toothbrush.png,2,1,0,1,1,0.4425681960596666,1,0,3,0,left,45,1,1,0
503,5d68c8aa40524c00189e8ac2_thisExp_2023-05-28_10h59.13.522.csv,-0.847457627118644,4,images/toothbrush.png,2,1,1,1,1,-0.5893278519209483,1,1,3,0,left,45,1,1,1
504,5d68c8aa40524c00189e8ac2_thisExp_2023-05-28_10h59.13.522.csv,-0.7627118644067796,5,images/toothbrush.png,2,1,1,1,1,0.2772528769612416,1,1,3,0,left,45,1,1,1
505,5d68c8aa40524c00189e8ac2_thisExp_2023-05-28_10h59.13.522.csv,-0.6779661016949152,6,images/toothbrush.png,2,1,1,1,1,-0.22589733951083085,1,1,3,0,left,45,1,1,1
506,5d68c8aa40524c00189e8ac2_thisExp_2023-05-28_10h59.13.522.csv,-0.6610169491525424,7,images/toothbrush.png,2,1,1,0,1,0.28997943150046446,1,1,3,0,left,45,1,1,1
507,5d68c8aa40524c00189e8ac2_thisExp_2023-05-28_10h59.13.522.csv,-0.5932203389830508,8,images/toothbrush.png,2,1,1,1,1,-1.118100965251972,1,1,3,0,left,45,1,1,1
508,5d68c8aa40524c00189e8ac2_thisExp_2023-05-28_10h59.13.522.csv,-0.576271186440678,9,images/toothbrush.png,2,1,1,0,1,-1.3420861064555702,1,1,3,0,left,45,1,1,1
509,5d68c8aa40524c00189e8ac2_thisExp_2023-05-28_10h59.13.522.csv,-0.559322033898305,10,images/toothbrush.png,2,1,1,0,1,-1.1890841918321853,1,1,3,0,left,45,1,1,1
510,5d68c8aa40524c00189e8ac2_thisExp_2023-05-28_10h59.13.522.csv,-0.5423728813559322,11,images/toothbrush.png,2,1,1,0,1,-1.3641415564787573,1,1,3,0,left,45,1,1,1
511,5d68c8aa40524c00189e8ac2_thisExp_2023-05-28_10h59.13.522.csv,-0.5084745762711864,12,images/toothbrush.png,2,1,1,1,1,0.3684552824742637,1,1,3,0,left,45,1,1,1
512,5d68c8aa40524c00189e8ac2_thisExp_2023-05-28_10h59.13.522.csv,-0.4915254237288136,13,images/toothbrush.png,2,1,1,0,1,-1.5436501718960973,1,1,3,0,left,45,1,1,1
513,5d68c8aa40524c00189e8ac2_thisExp_2023-05-28_10h59.13.522.csv,-0.4745762711864407,14,images/toothbrush.png,2,1,1,0,1,-1.8251094489096091,1,1,3,0,left,45,1,1,1
514,5d68c8aa40524c00189e8ac2_thisExp_2023-05-28_10h59.13.522.csv,-0.4576271186440678,15,images/toothbrush.png,2,1,1,0,1,-1.4032370818502027,1,1,3,0,left,45,1,1,1
515,5d68c8aa40524c00189e8ac2_thisExp_2023-05-28_10h59.13.522.csv,-0.3728813559322034,16,images/toothbrush.png,2,1,1,1,1,-1.369240606554063,1,1,3,0,left,45,1,1,1
516,5d68c8aa40524c00189e8ac2_thisExp_2023-05-28_10h59.13.522.csv,-0.2542372881355932,17,images/toothbrush.png,2,1,1,1,1,-1.1907275775759154,1,1,3,0,left,45,1,1,1
517,5d68c8aa40524c00189e8ac2_thisExp_2023-05-28_10h59.13.522.csv,-0.23728813559322035,18,images/toothbrush.png,2,1,1,0,1,-1.3520861897901537,1,1,3,0,left,45,1,1,1
518,5d68c8aa40524c00189e8ac2_thisExp_2023-05-28_10h59.13.522.csv,-0.1694915254237288,19,images/toothbrush.png,2,1,1,1,1,-1.2361517026901712,1,1,3,0,left,45,1,1,1
519,5d68c8aa40524c00189e8ac2_thisExp_2023-05-28_10h59.13.522.csv,-0.0847457627118644,20,images/toothbrush.png,2,1,1,1,1,-1.461449034720651,1,1,3,0,left,45,1,1,1
520,5d68c8aa40524c00189e8ac2_thisExp_2023-05-28_10h59.13.522.csv,-0.9830508474576272,1,images/car.png,3,1,1,1,1,1.577534363421092,0,0,3,0,left,45,0,1,1
521,5d68c8aa40524c00189e8ac2_thisExp_2023-05-28_10h59.13.522.csv,-0.9661016949152542,2,images/bowtie.png,3,0,1,0,1,1.0249657484998111,0,0,3,0,space,45,0,0,0
522,5d68c8aa40524c00189e8ac2_thisExp_2023-05-28_10h59.13.522.csv,-0.8983050847457628,3,images/car.png,3,1,0,1,1,-0.9068355731033999,0,0,3,0,left,45,1,1,0
523,5d68c8aa40524c00189e8ac2_thisExp_2023-05-28_10h59.13.522.csv,-0.847457627118644,4,images/car.png,3,1,1,1,1,-0.9910142780700916,0,0,3,0,left,45,1,1,1
524,5d68c8aa40524c00189e8ac2_thisExp_2023-05-28_10h59.13.522.csv,-0.7627118644067796,5,images/car.png,3,1,1,1,1,-0.7476033663560042,0,0,3,0,left,45,1,1,1
525,5d68c8aa40524c00189e8ac2_thisExp_2023-05-28_10h59.13.522.csv,-0.6779661016949152,6,images/car.png,3,1,1,1,1,-0.441766087834496,0,0,3,0,left,45,1,1,1
526,5d68c8aa40524c00189e8ac2_thisExp_2023-05-28_10h59.13.522.csv,-0.6610169491525424,7,images/car.png,3,1,1,0,1,-1.1669982015345746,0,0,3,0,left,45,1,1,1
527,5d68c8aa40524c00189e8ac2_thisExp_2023-05-28_10h59.13.522.csv,-0.5932203389830508,8,images/car.png,3,1,1,1,1,-1.4333859686537411,0,1,3,0,left,45,1,1,1
528,5d68c8aa40524c00189e8ac2_thisExp_2023-05-28_10h59.13.522.csv,-0.576271186440678,9,images/car.png,3,1,1,0,1,-1.7164664851926237,0,1,3,0,left,45,1,1,1
529,5d68c8aa40524c00189e8ac2_thisExp_2023-05-28_10h59.13.522.csv,-0.559322033898305,10,images/car.png,3,1,1,0,1,-1.8369660620661343,0,1,3,0,left,45,1,1,1
530,5d68c8aa40524c00189e8ac2_thisExp_2023-05-28_10h59.13.522.csv,-0.5423728813559322,11,images/car.png,3,1,1,0,1,-1.8189251373008244,0,1,3,0,left,45,1,1,1
531,5d68c8aa40524c00189e8ac2_thisExp_2023-05-28_10h59.13.522.csv,-0.5084745762711864,12,images/car.png,3,1,1,1,1,-0.6023928172914812,0,0,3,0,left,45,1,1,1
532,5d68c8aa40524c00189e8ac2_thisExp_2023-05-28_10h59.13.522.csv,-0.4915254237288136,13,images/car.png,3,1,1,0,1,-1.863685208799644,0,0,3,0,left,45,1,1,1
533,5d68c8aa40524c00189e8ac2_thisExp_2023-05-28_10h59.13.522.csv,-0.4745762711864407,14,images/car.png,3,1,1,0,1,-1.6718453725627174,0,0,3,0,left,45,1,1,1
534,5d68c8aa40524c00189e8ac2_thisExp_2023-05-28_10h59.13.522.csv,-0.4576271186440678,15,images/car.png,3,1,1,0,1,-1.9146052992269007,0,0,3,0,left,45,1,1,1
535,5d68c8aa40524c00189e8ac2_thisExp_2023-05-28_10h59.13.522.csv,-0.3728813559322034,16,images/car.png,3,1,1,1,1,-1.870153536656067,0,0,3,0,left,45,1,1,1
536,5d68c8aa40524c00189e8ac2_thisExp_2023-05-28_10h59.13.522.csv,-0.2542372881355932,17,images/car.png,3,1,1,1,1,-1.6814711153339321,0,1,3,0,left,45,1,1,1
537,5d68c8aa40524c00189e8ac2_thisExp_2023-05-28_10h59.13.522.csv,-0.23728813559322035,18,images/car.png,3,1,1,0,1,-1.648178740750531,0,1,3,0,left,45,1,1,1
538,5d68c8aa40524c00189e8ac2_thisExp_2023-05-28_10h59.13.522.csv,-0.1694915254237288,19,images/car.png,3,1,1,1,1,-1.6607312068216509,0,0,3,0,left,45,1,1,1
539,5d68c8aa40524c00189e8ac2_thisExp_2023-05-28_10h59.13.522.csv,-0.0847457627118644,20,images/car.png,3,1,1,1,1,-1.8753584931043688,0,0,3,0,left,45,1,1,1
540,5PARTICIPANT_thisExp_2023-05-28_10h06.57.899.csv,-0.9491525423728814,1,start,1,1,0,1,1,1.571050452029305,1,0,3,1,right,75,1,1,0
541,5PARTICIPANT_thisExp_2023-05-28_10h06.57.899.csv,-0.9152542372881356,2,start,1,0,1,1,1,1.8835178944675957,1,1,3,1,right,75,0,1,1
542,5PARTICIPANT_thisExp_2023-05-28_10h06.57.899.csv,-0.8983050847457628,3,start,1,1,0,0,1,1.145877481135224,1,1,3,1,right,75,1,1,0
543,5PARTICIPANT_thisExp_2023-05-28_10h06.57.899.csv,-0.8813559322033898,4,start,1,1,1,0,1,1.2840124350716617,1,1,3,1,right,75,1,1,1
544,5PARTICIPANT_thisExp_2023-05-28_10h06.57.899.csv,-0.847457627118644,5,start,1,1,1,1,1,1.935903102308115,1,1,3,1,right,75,1,1,1
545,5PARTICIPANT_thisExp_2023-05-28_10h06.57.899.csv,-0.7966101694915254,6,start,1,0,1,1,1,1.3952541024913625,1,0,3,1,left,75,1,1,1
546,5PARTICIPANT_thisExp_2023-05-28_10h06.57.899.csv,-0.7288135593220338,7,start,1,0,0,1,1,0.8943722677731325,1,0,3,1,right,75,1,1,1
547,5PARTICIPANT_thisExp_2023-05-28_10h06.57.899.csv,-0.6949152542372882,8,start,1,1,0,1,1,0.5984518117206208,1,1,3,1,right,75,1,1,1
548,5PARTICIPANT_thisExp_2023-05-28_10h06.57.899.csv,-0.6271186440677966,9,start,1,0,1,1,1,0.5190318603130899,1,0,3,1,left,75,1,1,1
549,5PARTICIPANT_thisExp_2023-05-28_10h06.57.899.csv,-0.6101694915254238,10,start,1,0,0,0,1,0.35199400542019166,1,1,3,1,left,75,1,1,1
550,5PARTICIPANT_thisExp_2023-05-28_10h06.57.899.csv,-0.5423728813559322,11,start,1,0,0,1,1,0.6477313170294627,1,1,3,1,left,75,1,1,1
551,5PARTICIPANT_thisExp_2023-05-28_10h06.57.899.csv,-0.5254237288135594,12,start,1,0,0,0,1,0.17563256864315796,1,1,3,1,left,75,1,1,1
552,5PARTICIPANT_thisExp_2023-05-28_10h06.57.899.csv,-0.5084745762711864,13,start,1,1,0,0,1,1.4660985788184921,1,0,3,1,right,75,1,1,1
553,5PARTICIPANT_thisExp_2023-05-28_10h06.57.899.csv,-0.4745762711864407,14,start,1,1,1,1,1,0.441346919995931,1,1,3,1,right,75,1,1,1
554,5PARTICIPANT_thisExp_2023-05-28_10h06.57.899.csv,-0.3559322033898305,15,start,1,1,1,1,1,0.7895476748462604,1,1,3,1,right,75,1,1,1
555,5PARTICIPANT_thisExp_2023-05-28_10h06.57.899.csv,-0.2711864406779661,16,start,1,1,1,1,1,0.535381641661878,1,1,3,1,right,75,1,1,1
556,5PARTICIPANT_thisExp_2023-05-28_10h06.57.899.csv,-0.23728813559322035,17,start,1,1,1,1,1,0.1613532503577583,1,1,3,1,right,75,1,1,1
557,5PARTICIPANT_thisExp_2023-05-28_10h06.57.899.csv,-0.1864406779661017,18,start,1,1,1,1,1,0.2829961104610665,1,1,3,1,right,75,1,1,1
558,5PARTICIPANT_thisExp_2023-05-28_10h06.57.899.csv,-0.15254237288135594,19,start,1,1,1,1,1,0.6210602416650445,1,1,3,1,right,75,1,1,1
559,5PARTICIPANT_thisExp_2023-05-28_10h06.57.899.csv,-0.13559322033898305,20,start,1,1,1,0,1,0.49213198131873664,1,1,3,1,right,75,1,1,1
560,5PARTICIPANT_thisExp_2023-05-28_10h06.57.899.csv,-0.9491525423728814,1,images/toothbrush.png,2,1,1,1,1,2.809246056589261,1,0,3,0,left,75,1,1,1
561,5PARTICIPANT_thisExp_2023-05-28_10h06.57.899.csv,-0.9152542372881356,2,images/toothbrush.png,2,0,1,1,1,2.266284113267714,1,0,3,0,right,75,0,1,1
562,5PARTICIPANT_thisExp_2023-05-28_10h06.57.899.csv,-0.8983050847457628,3,images/toothbrush.png,2,1,0,0,1,2.895718549407613,1,0,3,0,left,75,1,1,0
563,5PARTICIPANT_thisExp_2023-05-28_10h06.57.899.csv,-0.8813559322033898,4,images/toothbrush.png,2,1,1,0,1,0.8712096804335165,1,1,3,0,left,75,1,1,1
564,5PARTICIPANT_thisExp_2023-05-28_10h06.57.899.csv,-0.847457627118644,5,images/toothbrush.png,2,1,1,1,1,1.2545328299376368,1,1,3,0,left,75,1,1,1
565,5PARTICIPANT_thisExp_2023-05-28_10h06.57.899.csv,-0.7966101694915254,6,images/baby.png,2,0,1,1,1,0.4725005094443228,0,0,3,0,left,75,1,1,1
566,5PARTICIPANT_thisExp_2023-05-28_10h06.57.899.csv,-0.7288135593220338,7,images/toothbrush.png,2,0,0,1,1,-0.282362910974181,1,0,3,0,right,75,1,1,1
567,5PARTICIPANT_thisExp_2023-05-28_10h06.57.899.csv,-0.6949152542372882,8,images/toothbrush.png,2,1,0,1,1,-0.3654274210766339,1,0,3,0,left,75,1,1,1
568,5PARTICIPANT_thisExp_2023-05-28_10h06.57.899.csv,-0.6271186440677966,9,images/baby.png,2,0,1,1,1,-0.5647539657915464,0,1,3,0,left,75,1,1,1
569,5PARTICIPANT_thisExp_2023-05-28_10h06.57.899.csv,-0.6101694915254238,10,images/baby.png,2,0,0,0,1,-0.8549604767225492,0,1,3,0,left,75,1,1,1
570,5PARTICIPANT_thisExp_2023-05-28_10h06.57.899.csv,-0.5423728813559322,11,images/baby.png,2,0,0,1,1,-0.9400712605395585,0,1,3,0,left,75,1,1,1
571,5PARTICIPANT_thisExp_2023-05-28_10h06.57.899.csv,-0.5254237288135594,12,images/baby.png,2,0,0,0,1,-1.1463330248795214,0,1,3,0,left,75,1,1,1
572,5PARTICIPANT_thisExp_2023-05-28_10h06.57.899.csv,-0.5084745762711864,13,images/toothbrush.png,2,1,0,0,1,-0.23927293324409338,1,1,3,0,left,75,1,1,1
573,5PARTICIPANT_thisExp_2023-05-28_10h06.57.899.csv,-0.4745762711864407,14,images/toothbrush.png,2,1,1,1,1,-1.1596369905058843,1,1,3,0,left,75,1,1,1
574,5PARTICIPANT_thisExp_2023-05-28_10h06.57.899.csv,-0.3559322033898305,15,images/toothbrush.png,2,1,1,1,1,-1.3253874262163692,1,1,3,0,left,75,1,1,1
575,5PARTICIPANT_thisExp_2023-05-28_10h06.57.899.csv,-0.2711864406779661,16,images/toothbrush.png,2,1,1,1,1,-1.4762190686478776,1,1,3,0,left,75,1,1,1
576,5PARTICIPANT_thisExp_2023-05-28_10h06.57.899.csv,-0.23728813559322035,17,images/toothbrush.png,2,1,1,1,1,-1.1059390640545705,1,1,3,0,left,75,1,1,1
577,5PARTICIPANT_thisExp_2023-05-28_10h06.57.899.csv,-0.1864406779661017,18,images/toothbrush.png,2,1,1,1,1,-1.2779782176364316,1,1,3,0,left,75,1,1,1
578,5PARTICIPANT_thisExp_2023-05-28_10h06.57.899.csv,-0.15254237288135594,19,images/toothbrush.png,2,1,1,1,1,-1.2337449626596062,1,1,3,0,left,75,1,1,1
579,5PARTICIPANT_thisExp_2023-05-28_10h06.57.899.csv,-0.13559322033898305,20,images/toothbrush.png,2,1,1,0,1,-1.3074831806956009,1,1,3,0,left,75,1,1,1
580,5PARTICIPANT_thisExp_2023-05-28_10h06.57.899.csv,-0.9491525423728814,1,images/car.png,3,1,1,1,1,0.25005808385509126,0,0,3,0,left,75,1,1,1
581,5PARTICIPANT_thisExp_2023-05-28_10h06.57.899.csv,-0.9152542372881356,2,images/backpack.png,3,0,1,1,1,2.6939715604926504,0,0,3,0,space,75,0,0,1
582,5PARTICIPANT_thisExp_2023-05-28_10h06.57.899.csv,-0.8983050847457628,3,images/car.png,3,1,0,0,1,0.10625011984265931,0,0,3,0,left,75,1,1,0
583,5PARTICIPANT_thisExp_2023-05-28_10h06.57.899.csv,-0.8813559322033898,4,images/car.png,3,1,1,0,1,-0.29584866178484137,0,0,3,0,left,75,1,1,1
584,5PARTICIPANT_thisExp_2023-05-28_10h06.57.899.csv,-0.847457627118644,5,images/car.png,3,1,1,1,1,-0.6069694843188929,0,0,3,0,left,75,1,1,1
585,5PARTICIPANT_thisExp_2023-05-28_10h06.57.899.csv,-0.7966101694915254,6,images/backpack.png,3,0,1,1,1,0.6623270832200581,0,0,3,0,left,75,1,1,1
586,5PARTICIPANT_thisExp_2023-05-28_10h06.57.899.csv,-0.7288135593220338,7,images/backpack.png,3,0,0,1,1,-0.049505419903839346,0,0,3,0,right,75,1,1,1
587,5PARTICIPANT_thisExp_2023-05-28_10h06.57.899.csv,-0.6949152542372882,8,images/car.png,3,1,0,1,1,-0.6971552019574841,0,0,3,0,left,75,1,1,1
588,5PARTICIPANT_thisExp_2023-05-28_10h06.57.899.csv,-0.6271186440677966,9,images/backpack.png,3,0,1,1,1,-0.0820781110356069,0,1,3,0,left,75,1,1,1
589,5PARTICIPANT_thisExp_2023-05-28_10h06.57.899.csv,-0.6101694915254238,10,images/backpack.png,3,0,0,0,1,-0.29517675421404144,0,0,3,0,right,75,1,1,1
590,5PARTICIPANT_thisExp_2023-05-28_10h06.57.899.csv,-0.5423728813559322,11,images/backpack.png,3,0,0,1,1,0.02810143011087478,0,0,3,0,right,75,1,1,1
591,5PARTICIPANT_thisExp_2023-05-28_10h06.57.899.csv,-0.5254237288135594,12,images/backpack.png,3,0,0,0,1,-0.1066947386709629,0,0,3,0,left,75,1,1,1
592,5PARTICIPANT_thisExp_2023-05-28_10h06.57.899.csv,-0.5084745762711864,13,images/car.png,3,1,0,0,1,-0.6661158415089148,0,1,3,0,left,75,1,1,1
593,5PARTICIPANT_thisExp_2023-05-28_10h06.57.899.csv,-0.4745762711864407,14,images/car.png,3,1,1,1,1,-1.2447947988461912,0,0,3,0,left,75,1,1,1
594,5PARTICIPANT_thisExp_2023-05-28_10h06.57.899.csv,-0.3559322033898305,15,images/car.png,3,1,1,1,1,-1.246532418744732,0,1,3,0,left,75,1,1,1
595,5PARTICIPANT_thisExp_2023-05-28_10h06.57.899.csv,-0.2711864406779661,16,images/car.png,3,1,1,1,1,-1.5573199581719936,0,0,3,0,left,75,1,1,1
596,5PARTICIPANT_thisExp_2023-05-28_10h06.57.899.csv,-0.23728813559322035,17,images/car.png,3,1,1,1,1,-2.066722769272061,0,1,3,0,left,75,1,1,1
597,5PARTICIPANT_thisExp_2023-05-28_10h06.57.899.csv,-0.1864406779661017,18,images/car.png,3,1,1,1,1,-2.0565065703973398,0,1,3,0,left,75,1,1,1
598,5PARTICIPANT_thisExp_2023-05-28_10h06.57.899.csv,-0.15254237288135594,19,images/car.png,3,1,1,1,1,-1.9505207616129967,0,0,3,0,left,75,1,1,1
599,5PARTICIPANT_thisExp_2023-05-28_10h06.57.899.csv,-0.13559322033898305,20,images/car.png,3,1,1,0,1,-2.1169357461074165,0,0,3,0,left,75,1,1,1
600,5ec96e3609117f0a67231842_thisExp_2022-08-04_09h41.35.090.csv,-0.9830508474576272,1,start,1,1,0,1,1,2.2412414627529937,1,0,3,1,right,34,1,1,0
601,5ec96e3609117f0a67231842_thisExp_2022-08-04_09h41.35.090.csv,-0.9661016949152542,2,start,1,1,1,0,1,1.4233492690709018,1,1,3,1,right,34,1,1,1
602,5ec96e3609117f0a67231842_thisExp_2022-08-04_09h41.35.090.csv,-0.9152542372881356,3,start,1,1,1,1,1,0.5335651107354802,1,1,3,1,right,34,1,1,1
603,5ec96e3609117f0a67231842_thisExp_2022-08-04_09h41.35.090.csv,-0.8983050847457628,4,start,1,1,1,0,1,1.2801001647134869,1,1,3,1,right,34,1,1,1
604,5ec96e3609117f0a67231842_thisExp_2022-08-04_09h41.35.090.csv,-0.8305084745762712,5,start,1,1,1,1,1,0.3278638620846127,1,1,3,1,right,34,1,1,1
605,5ec96e3609117f0a67231842_thisExp_2022-08-04_09h41.35.090.csv,-0.7627118644067796,6,start,1,1,1,1,1,0.5170064828410719,1,1,3,1,right,34,1,1,1
606,5ec96e3609117f0a67231842_thisExp_2022-08-04_09h41.35.090.csv,-0.711864406779661,7,start,1,1,1,1,1,0.5675839575845996,1,1,3,1,right,34,1,1,1
607,5ec96e3609117f0a67231842_thisExp_2022-08-04_09h41.35.090.csv,-0.6610169491525424,8,start,1,1,1,1,1,0.37980536132758674,1,1,3,1,right,34,1,1,1
608,5ec96e3609117f0a67231842_thisExp_2022-08-04_09h41.35.090.csv,-0.6440677966101694,9,start,1,1,1,0,1,0.33289441527332897,1,1,3,1,right,34,1,1,1
609,5ec96e3609117f0a67231842_thisExp_2022-08-04_09h41.35.090.csv,-0.5932203389830508,10,start,1,1,1,1,1,0.20130685670503537,1,1,3,1,right,34,1,1,1
610,5ec96e3609117f0a67231842_thisExp_2022-08-04_09h41.35.090.csv,-0.576271186440678,11,start,1,1,1,0,1,0.5561813254867879,1,1,3,1,right,34,1,1,1
611,5ec96e3609117f0a67231842_thisExp_2022-08-04_09h41.35.090.csv,-0.5423728813559322,12,start,1,1,1,1,1,0.37775126954064864,1,1,3,1,right,34,1,1,1
612,5ec96e3609117f0a67231842_thisExp_2022-08-04_09h41.35.090.csv,-0.4915254237288136,13,start,1,1,1,1,1,1.0385083645984043,1,1,3,1,right,34,1,1,1
613,5ec96e3609117f0a67231842_thisExp_2022-08-04_09h41.35.090.csv,-0.4745762711864407,14,start,1,1,1,0,1,0.2949059175411005,1,1,3,1,right,34,1,1,1
614,5ec96e3609117f0a67231842_thisExp_2022-08-04_09h41.35.090.csv,-0.4067796610169492,15,start,1,1,1,1,1,0.28517894223366247,1,1,3,1,right,34,1,1,1
615,5ec96e3609117f0a67231842_thisExp_2022-08-04_09h41.35.090.csv,-0.1864406779661017,16,start,1,1,1,1,1,0.10616019582839072,1,1,3,1,right,34,1,1,1
616,5ec96e3609117f0a67231842_thisExp_2022-08-04_09h41.35.090.csv,-0.1694915254237288,17,start,1,1,1,0,1,0.051643233151838386,1,1,3,1,right,34,1,1,1
617,5ec96e3609117f0a67231842_thisExp_2022-08-04_09h41.35.090.csv,-0.0847457627118644,18,start,1,1,1,1,1,0.4861230111256188,1,1,3,1,right,34,1,1,1
618,5ec96e3609117f0a67231842_thisExp_2022-08-04_09h41.35.090.csv,-0.03389830508474576,19,start,1,1,1,1,1,0.9696419073711496,1,1,3,1,right,34,1,1,1
619,5ec96e3609117f0a67231842_thisExp_2022-08-04_09h41.35.090.csv,0.0,20,start,1,1,1,1,1,0.3364722366212129,1,1,3,1,right,34,1,1,1
620,5ec96e3609117f0a67231842_thisExp_2022-08-04_09h41.35.090.csv,-0.9830508474576272,1,images/toothbrush.png,2,1,1,1,1,2.868126148948845,1,0,3,0,left,34,1,1,1
621,5ec96e3609117f0a67231842_thisExp_2022-08-04_09h41.35.090.csv,-0.9661016949152542,2,images/toothbrush.png,2,1,1,0,1,1.5742251566783558,1,1,3,0,left,34,1,1,1
622,5ec96e3609117f0a67231842_thisExp_2022-08-04_09h41.35.090.csv,-0.9152542372881356,3,images/toothbrush.png,2,1,1,1,1,0.007968169649176881,1,1,3,0,left,34,1,1,1
623,5ec96e3609117f0a67231842_thisExp_2022-08-04_09h41.35.090.csv,-0.8983050847457628,4,images/toothbrush.png,2,1,1,0,1,-0.43540898448123644,1,1,3,0,left,34,1,1,1
624,5ec96e3609117f0a67231842_thisExp_2022-08-04_09h41.35.090.csv,-0.8305084745762712,5,images/toothbrush.png,2,1,1,1,1,-0.353821874956326,1,1,3,0,left,34,1,1,1
625,5ec96e3609117f0a67231842_thisExp_2022-08-04_09h41.35.090.csv,-0.7627118644067796,6,images/toothbrush.png,2,1,1,1,1,-0.08121005542554317,1,1,3,0,left,34,1,1,1
626,5ec96e3609117f0a67231842_thisExp_2022-08-04_09h41.35.090.csv,-0.711864406779661,7,images/toothbrush.png,2,1,1,1,1,-0.7940730991499059,1,1,3,0,left,34,1,1,1
627,5ec96e3609117f0a67231842_thisExp_2022-08-04_09h41.35.090.csv,-0.6610169491525424,8,images/toothbrush.png,2,1,1,1,1,-0.12783337150988489,1,1,3,0,left,34,1,1,1
628,5ec96e3609117f0a67231842_thisExp_2022-08-04_09h41.35.090.csv,-0.6440677966101694,9,images/toothbrush.png,2,1,1,0,1,-0.42924563677356775,1,1,3,0,left,34,1,1,1
629,5ec96e3609117f0a67231842_thisExp_2022-08-04_09h41.35.090.csv,-0.5932203389830508,10,images/toothbrush.png,2,1,1,1,1,-0.17673717850005405,1,1,3,0,left,34,1,1,1
630,5ec96e3609117f0a67231842_thisExp_2022-08-04_09h41.35.090.csv,-0.576271186440678,11,images/toothbrush.png,2,1,1,0,1,-0.7133498878774648,1,1,3,0,left,34,1,1,1
631,5ec96e3609117f0a67231842_thisExp_2022-08-04_09h41.35.090.csv,-0.5423728813559322,12,images/toothbrush.png,2,1,1,1,1,-0.7830718880879323,1,1,3,0,left,34,1,1,1
632,5ec96e3609117f0a67231842_thisExp_2022-08-04_09h41.35.090.csv,-0.4915254237288136,13,images/toothbrush.png,2,1,1,1,1,-0.7133498878774648,1,1,3,0,left,34,1,1,1
633,5ec96e3609117f0a67231842_thisExp_2022-08-04_09h41.35.090.csv,-0.4745762711864407,14,images/toothbrush.png,2,1,1,0,1,-0.8347107448817322,1,1,3,0,left,34,1,1,1
634,5ec96e3609117f0a67231842_thisExp_2022-08-04_09h41.35.090.csv,-0.4067796610169492,15,images/toothbrush.png,2,1,1,1,1,-0.780886094867952,1,1,3,0,left,34,1,1,1
635,5ec96e3609117f0a67231842_thisExp_2022-08-04_09h41.35.090.csv,-0.1864406779661017,16,images/toothbrush.png,2,1,1,1,1,-0.5816058058270378,1,1,3,0,left,34,1,1,1
636,5ec96e3609117f0a67231842_thisExp_2022-08-04_09h41.35.090.csv,-0.1694915254237288,17,images/toothbrush.png,2,1,1,0,1,-0.5361434317502807,1,1,3,0,left,34,1,1,1
637,5ec96e3609117f0a67231842_thisExp_2022-08-04_09h41.35.090.csv,-0.0847457627118644,18,images/toothbrush.png,2,1,1,1,1,-0.7743572359854884,1,1,3,0,left,34,1,1,1
638,5ec96e3609117f0a67231842_thisExp_2022-08-04_09h41.35.090.csv,-0.03389830508474576,19,images/toothbrush.png,2,1,1,1,1,-0.2903523010076598,1,1,3,0,left,34,1,1,1
639,5ec96e3609117f0a67231842_thisExp_2022-08-04_09h41.35.090.csv,0.0,20,images/toothbrush.png,2,1,1,1,1,-0.6539264674066639,1,1,3,0,left,34,1,1,1
640,5ec96e3609117f0a67231842_thisExp_2022-08-04_09h41.35.090.csv,-0.9830508474576272,1,images/car.png,3,1,1,1,1,0.9980550336767947,0,0,3,0,left,34,1,1,1
641,5ec96e3609117f0a67231842_thisExp_2022-08-04_09h41.35.090.csv,-0.9661016949152542,2,images/car.png,3,1,1,0,1,-0.22564668153232822,0,1,3,0,left,34,1,1,1
642,5ec96e3609117f0a67231842_thisExp_2022-08-04_09h41.35.090.csv,-0.9152542372881356,3,images/car.png,3,1,1,1,1,-0.5412848312506993,0,1,3,0,left,34,1,1,1
643,5ec96e3609117f0a67231842_thisExp_2022-08-04_09h41.35.090.csv,-0.8983050847457628,4,images/car.png,3,1,1,0,1,-0.53785429615391,0,1,3,0,left,34,1,1,1
644,5ec96e3609117f0a67231842_thisExp_2022-08-04_09h41.35.090.csv,-0.8305084745762712,5,images/car.png,3,1,1,1,1,-0.8940401229393353,0,1,3,0,left,34,1,1,1
645,5ec96e3609117f0a67231842_thisExp_2022-08-04_09h41.35.090.csv,-0.7627118644067796,6,images/car.png,3,1,1,1,1,-0.791863153499103,0,0,3,0,left,34,1,1,1
646,5ec96e3609117f0a67231842_thisExp_2022-08-04_09h41.35.090.csv,-0.711864406779661,7,images/car.png,3,1,1,1,1,-0.9942522733438669,0,1,3,0,left,34,1,1,1
647,5ec96e3609117f0a67231842_thisExp_2022-08-04_09h41.35.090.csv,-0.6610169491525424,8,images/car.png,3,1,1,1,1,-0.8722738464573808,0,0,3,0,left,34,1,1,1
648,5ec96e3609117f0a67231842_thisExp_2022-08-04_09h41.35.090.csv,-0.6440677966101694,9,images/car.png,3,1,1,0,1,-0.8486320834003402,0,0,3,0,left,34,1,1,1
649,5ec96e3609117f0a67231842_thisExp_2022-08-04_09h41.35.090.csv,-0.5932203389830508,10,images/car.png,3,1,1,1,1,-0.5551258826625707,0,1,3,0,left,34,1,1,1
650,5ec96e3609117f0a67231842_thisExp_2022-08-04_09h41.35.090.csv,-0.576271186440678,11,images/car.png,3,1,1,0,1,-0.916290731874155,0,1,3,0,left,34,1,1,1
651,5ec96e3609117f0a67231842_thisExp_2022-08-04_09h41.35.090.csv,-0.5423728813559322,12,images/car.png,3,1,1,1,1,-0.44941699563734716,0,0,3,0,left,34,1,1,1
652,5ec96e3609117f0a67231842_thisExp_2022-08-04_09h41.35.090.csv,-0.4915254237288136,13,images/car.png,3,1,1,1,1,-0.791863153499103,0,0,3,0,left,34,1,1,1
653,5ec96e3609117f0a67231842_thisExp_2022-08-04_09h41.35.090.csv,-0.4745762711864407,14,images/car.png,3,1,1,0,1,-0.8278220838865469,0,0,3,0,left,34,1,1,1
654,5ec96e3609117f0a67231842_thisExp_2022-08-04_09h41.35.090.csv,-0.4067796610169492,15,images/car.png,3,1,1,1,1,-0.9014021193804044,0,0,3,0,left,34,1,1,1
655,5ec96e3609117f0a67231842_thisExp_2022-08-04_09h41.35.090.csv,-0.1864406779661017,16,images/car.png,3,1,1,1,1,-0.7444404749474959,0,0,3,0,left,34,1,1,1
656,5ec96e3609117f0a67231842_thisExp_2022-08-04_09h41.35.090.csv,-0.1694915254237288,17,images/car.png,3,1,1,0,1,-0.5361434317502807,0,0,3,0,left,34,1,1,1
657,5ec96e3609117f0a67231842_thisExp_2022-08-04_09h41.35.090.csv,-0.0847457627118644,18,images/car.png,3,1,1,1,1,-0.8698843590599994,0,0,3,0,left,34,1,1,1
658,5ec96e3609117f0a67231842_thisExp_2022-08-04_09h41.35.090.csv,-0.03389830508474576,19,images/car.png,3,1,1,1,1,-0.3581045367483269,0,1,3,0,left,34,1,1,1
659,5ec96e3609117f0a67231842_thisExp_2022-08-04_09h41.35.090.csv,0.0,20,images/car.png,3,1,1,1,1,-0.9113031903631159,0,0,3,0,left,34,1,1,1
660,5PARTICIPANT_thisExp_2022-08-04_10h44.32.510.csv,-1.0,1,start,1,0,0,1,1,3.421094775709655,1,0,3,1,left,36,0,1,0
661,5PARTICIPANT_thisExp_2022-08-04_10h44.32.510.csv,-0.9830508474576272,2,start,1,1,0,0,1,2.1490842020082845,1,0,3,1,right,36,0,1,0
662,5PARTICIPANT_thisExp_2022-08-04_10h44.32.510.csv,-0.9491525423728814,3,start,1,0,1,1,1,1.5660710157288875,1,1,3,1,right,36,0,1,0
663,5PARTICIPANT_thisExp_2022-08-04_10h44.32.510.csv,-0.9152542372881356,4,start,1,1,0,1,1,1.5030324065196508,1,1,3,1,right,36,0,1,0
664,5PARTICIPANT_thisExp_2022-08-04_10h44.32.510.csv,-0.8983050847457628,5,start,1,0,1,0,1,0.26689245824422453,1,1,3,1,right,36,0,1,0
665,5PARTICIPANT_thisExp_2022-08-04_10h44.32.510.csv,-0.864406779661017,6,start,1,0,0,1,1,0.35325911663756304,1,0,3,1,space,36,0,0,0
