,sub,trial_num,trial_num_within_goal,current_state,decision,got_to_goal,got_to_goal_last,goal_switch,control_regressor,RT,eligible_decisions_accuracy,retrieved_cached,planning_depth,delayed_planning,choices,worry,optimally_delayed,optimally_control_choice,optimally_delayed_last
0,5AD_thisExp_2023-05-28_12h16.10.170.csv,-1.0,1,start,1,1,0,1,1,2.3431510547407073,1,0,3,1,right,34,1,1,0
1,5AD_thisExp_2023-05-28_12h16.10.170.csv,-0.9661016949152542,2,start,1,1,1,1,1,2.046453365852855,1,1,3,1,right,34,1,1,1
2,5AD_thisExp_2023-05-28_12h16.10.170.csv,-0.8813559322033898,3,start,1,0,1,1,1,0.5332718125958207,1,0,3,1,left,34,1,1,1
3,5AD_thisExp_2023-05-28_12h16.10.170.csv,-0.864406779661017,4,start,1,0,0,0,1,0.8694087459740246,1,0,3,1,right,34,1,1,1
4,5AD_thisExp_2023-05-28_12h16.10.170.csv,-0.8305084745762712,5,start,1,1,0,1,1,2.124558300482959,1,1,3,1,right,34,1,1,1
5,5AD_thisExp_2023-05-28_12h16.10.170.csv,-0.7966101694915254,6,start,1,1,1,1,1,2.017738995361473,1,1,3,1,right,34,1,1,1
6,5AD_thisExp_2023-05-28_12h16.10.170.csv,-0.7796610169491526,7,start,1,1,1,0,1,3.2268638355903834,1,1,3,1,right,34,1,1,1
7,5AD_thisExp_2023-05-28_12h16.10.170.csv,-0.711864406779661,8,start,1,1,1,1,1,0.15640527916413574,1,1,3,1,right,34,1,1,1
8,5AD_thisExp_2023-05-28_12h16.10.170.csv,-0.6949152542372882,9,start,1,1,1,0,1,1.647138239616926,1,1,3,1,right,34,1,1,1
9,5AD_thisExp_2023-05-28_12h16.10.170.csv,-0.559322033898305,10,start,1,0,1,1,1,0.7034934726140896,1,1,3,1,right,34,1,1,1
10,5AD_thisExp_2023-05-28_12h16.10.170.csv,-0.5254237288135594,11,start,1,1,0,1,1,0.7671872932684101,1,1,3,1,right,34,1,1,1
11,5AD_thisExp_2023-05-28_12h16.10.170.csv,-0.4745762711864407,12,start,1,1,1,1,1,0.6380572142419852,1,1,3,1,right,34,1,1,1
12,5AD_thisExp_2023-05-28_12h16.10.170.csv,-0.3728813559322034,13,start,1,1,1,1,1,0.43359894735193566,1,1,3,1,right,34,1,1,1
13,5AD_thisExp_2023-05-28_12h16.10.170.csv,-0.3559322033898305,14,start,1,1,1,0,1,0.21268909341035092,1,1,3,1,right,34,1,1,1
14,5AD_thisExp_2023-05-28_12h16.10.170.csv,-0.3389830508474576,15,start,1,1,1,0,1,0.2908021997880245,1,1,3,1,right,34,1,1,1
15,5AD_thisExp_2023-05-28_12h16.10.170.csv,-0.288135593220339,16,start,1,1,1,1,1,0.20048886074940356,1,1,3,1,right,34,1,1,1
16,5AD_thisExp_2023-05-28_12h16.10.170.csv,-0.15254237288135594,17,start,1,1,1,1,1,0.43580030790423735,1,1,3,1,right,34,1,1,1
17,5AD_thisExp_2023-05-28_12h16.10.170.csv,-0.11864406779661017,18,start,1,1,1,1,1,0.396558898637168,1,1,3,1,right,34,1,1,1
18,5AD_thisExp_2023-05-28_12h16.10.170.csv,-0.06779661016949153,19,start,1,1,1,1,1,0.846211556286782,1,1,3,1,right,34,1,1,1
19,5AD_thisExp_2023-05-28_12h16.10.170.csv,-0.05084745762711865,20,start,1,1,1,0,1,1.2714164764229572,1,1,3,1,right,34,1,1,1
20,5AD_thisExp_2023-05-28_12h16.10.170.csv,-1.0,1,images/toothbrush.png,2,1,1,1,1,2.0990480713187543,1,0,3,0,left,34,1,1,1
21,5AD_thisExp_2023-05-28_12h16.10.170.csv,-0.9661016949152542,2,images/toothbrush.png,2,1,1,1,1,1.2908566731867497,1,1,3,0,left,34,1,1,1
22,5AD_thisExp_2023-05-28_12h16.10.170.csv,-0.8813559322033898,3,images/baby.png,2,0,1,1,1,-0.519530064396137,0,0,3,0,right,34,1,1,1
23,5AD_thisExp_2023-05-28_12h16.10.170.csv,-0.864406779661017,4,images/toothbrush.png,2,0,0,0,1,0.23680974207802444,1,0,3,0,right,34,1,1,1
24,5AD_thisExp_2023-05-28_12h16.10.170.csv,-0.8305084745762712,5,images/toothbrush.png,2,1,0,1,1,-0.8782726646866342,1,0,3,0,left,34,1,1,1
25,5AD_thisExp_2023-05-28_12h16.10.170.csv,-0.7966101694915254,6,images/toothbrush.png,2,1,1,1,1,1.586517229049532,1,1,3,0,left,34,1,1,1
26,5AD_thisExp_2023-05-28_12h16.10.170.csv,-0.7796610169491526,7,images/toothbrush.png,2,1,1,0,1,0.2817143006719894,1,1,3,0,left,34,1,1,1
27,5AD_thisExp_2023-05-28_12h16.10.170.csv,-0.711864406779661,8,images/toothbrush.png,2,1,1,1,1,-0.09453048384623328,1,1,3,0,left,34,1,1,1
28,5AD_thisExp_2023-05-28_12h16.10.170.csv,-0.6949152542372882,9,images/toothbrush.png,2,1,1,0,1,-1.1168780974750023,1,1,3,0,left,34,1,1,1
29,5AD_thisExp_2023-05-28_12h16.10.170.csv,-0.559322033898305,10,images/toothbrush.png,2,0,1,1,1,-1.1177951080848836,1,0,3,0,right,34,1,1,1
30,5AD_thisExp_2023-05-28_12h16.10.170.csv,-0.5254237288135594,11,images/toothbrush.png,2,1,0,1,1,-0.7597144248320584,1,0,3,0,left,34,1,1,1
31,5AD_thisExp_2023-05-28_12h16.10.170.csv,-0.4745762711864407,12,images/toothbrush.png,2,1,1,1,1,-1.1966662291434977,1,1,3,0,left,34,1,1,1
32,5AD_thisExp_2023-05-28_12h16.10.170.csv,-0.3728813559322034,13,images/toothbrush.png,2,1,1,1,1,-0.8096809968158968,1,1,3,0,left,34,1,1,1
33,5AD_thisExp_2023-05-28_12h16.10.170.csv,-0.3559322033898305,14,images/toothbrush.png,2,1,1,0,1,-1.179930809845698,1,1,3,0,left,34,1,1,1
34,5AD_thisExp_2023-05-28_12h16.10.170.csv,-0.3389830508474576,15,images/toothbrush.png,2,1,1,0,1,-1.4996870484749811,1,1,3,0,left,34,1,1,1
35,5AD_thisExp_2023-05-28_12h16.10.170.csv,-0.288135593220339,16,images/toothbrush.png,2,1,1,1,1,-1.0903465442510771,1,1,3,0,left,34,1,1,1
36,5AD_thisExp_2023-05-28_12h16.10.170.csv,-0.15254237288135594,17,images/toothbrush.png,2,1,1,1,1,-0.1479201300766222,1,1,3,0,left,34,1,1,1
37,5AD_thisExp_2023-05-28_12h16.10.170.csv,-0.11864406779661017,18,images/toothbrush.png,2,1,1,1,1,-1.2913478838109371,1,1,3,0,left,34,1,1,1
38,5AD_thisExp_2023-05-28_12h16.10.170.csv,-0.06779661016949153,19,images/toothbrush.png,2,1,1,1,1,-1.075286463364613,1,1,3,0,left,34,1,1,1
39,5AD_thisExp_2023-05-28_12h16.10.170.csv,-0.05084745762711865,20,images/toothbrush.png,2,1,1,0,1,-0.2667036660665892,1,1,3,0,left,34,1,1,1
40,5AD_thisExp_2023-05-28_12h16.10.170.csv,-1.0,1,images/car.png,3,1,1,1,1,0.8294684279181836,0,0,3,0,left,34,1,1,1
41,5AD_thisExp_2023-05-28_12h16.10.170.csv,-0.9661016949152542,2,images/car.png,3,1,1,1,1,0.8999174177562098,0,0,3,0,left,34,1,1,1
42,5AD_thisExp_2023-05-28_12h16.10.170.csv,-0.8813559322033898,3,images/bowtie.png,3,0,1,1,1,0.18015253950911464,0,0,3,0,right,34,1,1,1
43,5AD_thisExp_2023-05-28_12h16.10.170.csv,-0.864406779661017,4,images/backpack.png,3,0,0,0,1,-0.5803543530848232,0,0,3,0,left,34,1,1,1
44,5AD_thisExp_2023-05-28_12h16.10.170.csv,-0.8305084745762712,5,images/car.png,3,1,0,1,1,1.4533687267842115,0,0,3,0,left,34,1,1,1
45,5AD_thisExp_2023-05-28_12h16.10.170.csv,-0.7966101694915254,6,images/car.png,3,1,1,1,1,1.4567761236582608,0,1,3,0,left,34,1,1,1
46,5AD_thisExp_2023-05-28_12h16.10.170.csv,-0.7796610169491526,7,images/car.png,3,1,1,0,1,-0.04436994773594053,0,1,3,0,left,34,1,1,1
47,5AD_thisExp_2023-05-28_12h16.10.170.csv,-0.711864406779661,8,images/car.png,3,1,1,1,1,0.5101854188785674,0,0,3,0,left,34,1,1,1
48,5AD_thisExp_2023-05-28_12h16.10.170.csv,-0.6949152542372882,9,images/car.png,3,1,1,0,1,-1.0191543673333943,0,0,3,0,left,34,1,1,1
49,5AD_thisExp_2023-05-28_12h16.10.170.csv,-0.559322033898305,10,images/backpack.png,3,0,1,1,1,-0.13273171245395826,0,1,3,0,left,34,1,1,1
50,5AD_thisExp_2023-05-28_12h16.10.170.csv,-0.5254237288135594,11,images/car.png,3,1,0,1,1,-0.35681781128664314,0,0,3,0,left,34,1,1,1
51,5AD_thisExp_2023-05-28_12h16.10.170.csv,-0.4745762711864407,12,images/car.png,3,1,1,1,1,-0.660486398320397,0,0,3,0,left,34,1,1,1
52,5AD_thisExp_2023-05-28_12h16.10.170.csv,-0.3728813559322034,13,images/car.png,3,1,1,1,1,-0.8416471888783893,0,1,3,0,left,34,1,1,1
53,5AD_thisExp_2023-05-28_12h16.10.170.csv,-0.3559322033898305,14,images/car.png,3,1,1,0,1,-0.3367322704270728,0,1,3,0,left,34,1,1,1
54,5AD_thisExp_2023-05-28_12h16.10.170.csv,-0.3389830508474576,15,images/car.png,3,1,1,0,1,-1.526476391719753,0,1,3,0,left,34,1,1,1
55,5AD_thisExp_2023-05-28_12h16.10.170.csv,-0.288135593220339,16,images/car.png,3,1,1,1,1,-0.5725237382362065,0,1,3,0,left,34,1,1,1
56,5AD_thisExp_2023-05-28_12h16.10.170.csv,-0.15254237288135594,17,images/car.png,3,1,1,1,1,-1.9255194594075793,0,0,3,0,left,34,1,1,1
57,5AD_thisExp_2023-05-28_12h16.10.170.csv,-0.11864406779661017,18,images/car.png,3,1,1,1,1,-0.3912663887083514,0,0,3,0,left,34,1,1,1
58,5AD_thisExp_2023-05-28_12h16.10.170.csv,-0.06779661016949153,19,images/car.png,3,1,1,1,1,-2.1883639489040227,0,1,3,0,left,34,1,1,1
59,5AD_thisExp_2023-05-28_12h16.10.170.csv,-0.05084745762711865,20,images/car.png,3,1,1,0,1,-2.0890879187316416,0,1,3,0,left,34,1,1,1
60,5PARTICIPANT_thisExp_2022-08-04_10h44.32.510.csv,-1.0,1,start,1,0,0,1,1,3.421094775709655,1,0,3,1,left,36,0,1,0
61,5PARTICIPANT_thisExp_2022-08-04_10h44.32.510.csv,-0.9830508474576272,2,start,1,1,0,0,1,2.1490842020082845,1,0,3,1,right,36,0,1,0
62,5PARTICIPANT_thisExp_2022-08-04_10h44.32.510.csv,-0.9491525423728814,3,start,1,0,1,1,1,1.5660710157288875,1,1,3,1,right,36,0,1,0
63,5PARTICIPANT_thisExp_2022-08-04_10h44.32.510.csv,-0.9152542372881356,4,start,1,1,0,1,1,1.5030324065196508,1,1,3,1,right,36,0,1,0
64,5PARTICIPANT_thisExp_2022-08-04_10h44.32.510.csv,-0.8983050847457628,5,start,1,0,1,0,1,0.26689245824422453,1,1,3,1,right,36,0,1,0
65,5PARTICIPANT_thisExp_2022-08-04_10h44.32.510.csv,-0.864406779661017,6,start,1,0,0,1,1,0.35325911663756304,1,0,3,1,space,36,0,0,0
66,5PARTICIPANT_thisExp_2022-08-04_10h44.32.510.csv,-0.7288135593220338,7,start,1,0,0,1,1,4.260001645892596,1,1,3,1,space,36,0,0,0
67,5PARTICIPANT_thisExp_2022-08-04_10h44.32.510.csv,-0.6101694915254238,8,start,1,0,0,1,1,1.801264156242301,1,1,3,1,space,36,0,0,0
68,5PARTICIPANT_thisExp_2022-08-04_10h44.32.510.csv,-0.5932203389830508,9,start,1,0,0,0,1,1.3958485739247024,1,1,3,1,space,36,0,0,0
69,5PARTICIPANT_thisExp_2022-08-04_10h44.32.510.csv,-0.5423728813559322,10,start,1,1,0,1,1,1.0069720331129235,1,0,3,1,right,36,1,1,0
70,5PARTICIPANT_thisExp_2022-08-04_10h44.32.510.csv,-0.3389830508474576,11,start,1,0,1,1,1,-0.6341238401104843,1,0,3,1,space,36,0,0,1
71,5PARTICIPANT_thisExp_2022-08-04_10h44.32.510.csv,-0.3220338983050847,12,start,1,0,0,0,1,0.44063918311581846,1,1,3,1,space,36,0,0,0
72,5PARTICIPANT_thisExp_2022-08-04_10h44.32.510.csv,-0.2711864406779661,13,start,1,1,0,1,1,0.2902038899952903,1,0,3,1,right,36,1,1,0
73,5PARTICIPANT_thisExp_2022-08-04_10h44.32.510.csv,-0.23728813559322035,14,start,1,0,1,1,1,-1.3505411914140728,1,0,3,1,space,36,0,0,1
74,5PARTICIPANT_thisExp_2022-08-04_10h44.32.510.csv,-0.1694915254237288,15,start,1,1,0,1,1,3.3602469066664153,1,0,3,1,right,36,1,1,0
75,5PARTICIPANT_thisExp_2022-08-04_10h44.32.510.csv,-0.13559322033898305,16,start,1,0,1,1,1,-2.2072749131897207,1,0,3,1,space,36,0,0,1
76,5PARTICIPANT_thisExp_2022-08-04_10h44.32.510.csv,-0.11864406779661017,17,start,1,1,0,0,1,0.23317308695138816,1,0,3,1,right,36,1,1,0
77,5PARTICIPANT_thisExp_2022-08-04_10h44.32.510.csv,-0.0847457627118644,18,start,1,1,1,1,1,0.6670598457966268,1,1,3,1,right,36,1,1,1
78,5PARTICIPANT_thisExp_2022-08-04_10h44.32.510.csv,-0.05084745762711865,19,start,1,1,1,1,1,0.051643233151838386,1,1,3,1,right,36,1,1,1
79,5PARTICIPANT_thisExp_2022-08-04_10h44.32.510.csv,0.0,20,start,1,0,1,1,1,0.028781801425451947,1,0,3,1,space,36,0,0,1
80,5PARTICIPANT_thisExp_2022-08-04_10h44.32.510.csv,-1.0,1,images/baby.png,2,0,0,1,1,1.8666350038731618,0,0,3,0,space,36,0,0,0
81,5PARTICIPANT_thisExp_2022-08-04_10h44.32.510.csv,-0.9830508474576272,2,images/toothbrush.png,2,1,0,0,1,0.5024103141646435,1,0,3,0,space,36,0,0,0
82,5PARTICIPANT_thisExp_2022-08-04_10h44.32.510.csv,-0.9491525423728814,3,images/toothbrush.png,2,0,1,1,1,2.201957802376685,1,1,3,0,space,36,0,0,0
83,5PARTICIPANT_thisExp_2022-08-04_10h44.32.510.csv,-0.9152542372881356,4,images/toothbrush.png,2,1,0,1,1,-0.9308968842635172,1,1,3,0,space,36,0,0,0
84,5PARTICIPANT_thisExp_2022-08-04_10h44.32.510.csv,-0.8983050847457628,5,images/toothbrush.png,2,0,1,0,1,-1.1523295711740975,1,1,3,0,space,36,0,0,0
85,5PARTICIPANT_thisExp_2022-08-04_10h44.32.510.csv,-0.864406779661017,6,images/baby.png,2,0,0,1,1,1.6317667579171635,0,1,3,0,space,36,0,0,0
86,5PARTICIPANT_thisExp_2022-08-04_10h44.32.510.csv,-0.7288135593220338,7,images/toothbrush.png,2,0,0,1,1,0.56815069038526,1,1,3,0,space,36,0,0,0
87,5PARTICIPANT_thisExp_2022-08-04_10h44.32.510.csv,-0.6101694915254238,8,images/baby.png,2,0,0,1,1,1.0198937039567046,0,1,3,0,space,36,0,0,0
88,5PARTICIPANT_thisExp_2022-08-04_10h44.32.510.csv,-0.5932203389830508,9,images/toothbrush.png,2,0,0,0,1,1.0517652354352667,1,1,3,0,space,36,0,0,0
89,5PARTICIPANT_thisExp_2022-08-04_10h44.32.510.csv,-0.5423728813559322,10,images/toothbrush.png,2,1,0,1,1,0.5440089175562235,1,0,3,0,left,36,1,1,0
90,5PARTICIPANT_thisExp_2022-08-04_10h44.32.510.csv,-0.3389830508474576,11,images/baby.png,2,0,1,1,1,0.8477977354288546,0,1,3,0,space,36,0,0,1
91,5PARTICIPANT_thisExp_2022-08-04_10h44.32.510.csv,-0.3220338983050847,12,images/baby.png,2,0,0,0,1,-0.1084764763360838,0,1,3,0,space,36,0,0,0
92,5PARTICIPANT_thisExp_2022-08-04_10h44.32.510.csv,-0.2711864406779661,13,images/toothbrush.png,2,1,0,1,1,-0.1960148839259572,1,1,3,0,left,36,1,1,0
93,5PARTICIPANT_thisExp_2022-08-04_10h44.32.510.csv,-0.23728813559322035,14,images/baby.png,2,0,1,1,1,0.17420537619169696,0,1,3,0,space,36,0,0,1
94,5PARTICIPANT_thisExp_2022-08-04_10h44.32.510.csv,-0.1694915254237288,15,images/toothbrush.png,2,1,0,1,1,0.40779572344644677,1,1,3,0,left,36,1,1,0
95,5PARTICIPANT_thisExp_2022-08-04_10h44.32.510.csv,-0.13559322033898305,16,images/baby.png,2,0,1,1,1,0.22809129103814332,0,1,3,0,space,36,0,0,1
96,5PARTICIPANT_thisExp_2022-08-04_10h44.32.510.csv,-0.11864406779661017,17,images/toothbrush.png,2,1,0,0,1,-0.5814269309495373,1,1,3,0,left,36,1,1,0
97,5PARTICIPANT_thisExp_2022-08-04_10h44.32.510.csv,-0.0847457627118644,18,images/toothbrush.png,2,1,1,1,1,-1.1721511920029801,1,1,3,0,left,36,1,1,1
98,5PARTICIPANT_thisExp_2022-08-04_10h44.32.510.csv,-0.05084745762711865,19,images/toothbrush.png,2,1,1,1,1,-1.003756757655431,1,1,3,0,left,36,1,1,1
99,5PARTICIPANT_thisExp_2022-08-04_10h44.32.510.csv,0.0,20,images/baby.png,2,0,1,1,1,-0.13788370736338637,0,1,3,0,space,36,0,0,1
100,5PARTICIPANT_thisExp_2022-08-04_10h44.32.510.csv,-1.0,1,images/bowtie.png,3,0,0,1,1,0.6851654108182876,0,0,3,0,space,36,0,0,0
101,5PARTICIPANT_thisExp_2022-08-04_10h44.32.510.csv,-0.9830508474576272,2,images/car.png,3,1,0,0,1,1.6746074844171968,0,0,3,0,left,36,0,1,0
102,5PARTICIPANT_thisExp_2022-08-04_10h44.32.510.csv,-0.9491525423728814,3,images/backpack.png,3,0,1,1,1,2.6709089244215276,0,0,3,0,space,36,0,0,0
103,5PARTICIPANT_thisExp_2022-08-04_10h44.32.510.csv,-0.9152542372881356,4,images/car.png,3,1,0,1,1,0.2617486904252764,0,0,3,0,left,36,0,1,0
104,5PARTICIPANT_thisExp_2022-08-04_10h44.32.510.csv,-0.8983050847457628,5,images/backpack.png,3,0,1,0,1,0.3360435733296593,0,1,3,0,space,36,0,0,0
105,5PARTICIPANT_thisExp_2022-08-04_10h44.32.510.csv,-0.864406779661017,6,images/backpack.png,3,0,0,1,1,-0.5346061524313942,0,1,3,0,space,36,0,0,0
106,5PARTICIPANT_thisExp_2022-08-04_10h44.32.510.csv,-0.7288135593220338,7,images/backpack.png,3,0,0,1,1,0.2786917806136482,0,0,3,0,space,36,0,0,0
107,5PARTICIPANT_thisExp_2022-08-04_10h44.32.510.csv,-0.6101694915254238,8,images/backpack.png,3,0,0,1,1,-1.3023209273437122,0,0,3,0,space,36,0,0,0
108,5PARTICIPANT_thisExp_2022-08-04_10h44.32.510.csv,-0.5932203389830508,9,images/backpack.png,3,0,0,0,1,0.630899367080418,0,0,3,0,space,36,0,0,0
109,5PARTICIPANT_thisExp_2022-08-04_10h44.32.510.csv,-0.5423728813559322,10,images/car.png,3,1,0,1,1,1.1722963614653836,0,1,3,0,left,36,1,1,0
110,5PARTICIPANT_thisExp_2022-08-04_10h44.32.510.csv,-0.3389830508474576,11,images/bowtie.png,3,0,1,1,1,-1.8369660620661343,0,0,3,0,space,36,0,0,1
111,5PARTICIPANT_thisExp_2022-08-04_10h44.32.510.csv,-0.3220338983050847,12,images/bowtie.png,3,0,0,0,1,-1.720369473141382,0,0,3,0,space,36,0,0,0
112,5PARTICIPANT_thisExp_2022-08-04_10h44.32.510.csv,-0.2711864406779661,13,images/car.png,3,1,0,1,1,0.8085718819753627,0,1,3,0,left,36,1,1,0
113,5PARTICIPANT_thisExp_2022-08-04_10h44.32.510.csv,-0.23728813559322035,14,images/backpack.png,3,0,1,1,1,-1.9790533676485675,0,0,3,0,space,36,0,0,1
114,5PARTICIPANT_thisExp_2022-08-04_10h44.32.510.csv,-0.1694915254237288,15,images/car.png,3,1,0,1,1,0.1792334601947214,0,1,3,0,left,36,1,1,0
115,5PARTICIPANT_thisExp_2022-08-04_10h44.32.510.csv,-0.13559322033898305,16,images/bowtie.png,3,0,1,1,1,-2.1311559773665145,0,0,3,0,space,36,0,0,1
116,5PARTICIPANT_thisExp_2022-08-04_10h44.32.510.csv,-0.11864406779661017,17,images/car.png,3,1,0,0,1,0.3703214059725833,0,1,3,0,left,36,1,1,0
117,5PARTICIPANT_thisExp_2022-08-04_10h44.32.510.csv,-0.0847457627118644,18,images/car.png,3,1,1,1,1,-1.3246349807331628,0,0,3,0,left,36,1,1,1
118,5PARTICIPANT_thisExp_2022-08-04_10h44.32.510.csv,-0.05084745762711865,19,images/car.png,3,1,1,1,1,-1.9805015938249322,0,1,3,0,left,36,1,1,1
119,5PARTICIPANT_thisExp_2022-08-04_10h44.32.510.csv,0.0,20,images/backpack.png,3,0,1,1,1,-2.0456199932043253,0,0,3,0,space,36,0,0,1
120,5claire_thisExp_2023-05-29_10h48.40.380.csv,-1.0,1,start,1,0,0,1,1,3.0310415006562255,1,0,3,1,space,63,0,0,0
121,5claire_thisExp_2023-05-29_10h48.40.380.csv,-0.9830508474576272,2,start,1,0,0,0,1,2.5663099698700598,1,0,3,1,left,63,1,1,0
122,5claire_thisExp_2023-05-29_10h48.40.380.csv,-0.9491525423728814,3,start,1,1,0,1,1,2.1464107001736066,1,0,3,1,right,63,1,1,1
123,5claire_thisExp_2023-05-29_10h48.40.380.csv,-0.9152542372881356,4,start,1,1,1,1,1,1.4174053561449433,1,1,3,1,right,63,1,1,1
124,5claire_thisExp_2023-05-29_10h48.40.380.csv,-0.8813559322033898,5,start,1,1,1,1,1,1.2650020501533865,1,1,3,1,right,63,1,1,1
125,5claire_thisExp_2023-05-29_10h48.40.380.csv,-0.847457627118644,6,start,1,1,1,1,1,1.0121098730447582,1,1,3,1,right,63,1,1,1
126,5claire_thisExp_2023-05-29_10h48.40.380.csv,-0.8135593220338984,7,start,1,1,1,1,1,0.7483453410247076,1,1,3,1,right,63,1,1,1
127,5claire_thisExp_2023-05-29_10h48.40.380.csv,-0.7627118644067796,8,start,1,1,1,1,1,1.2921210348526286,1,1,3,1,right,63,1,1,1
128,5claire_thisExp_2023-05-29_10h48.40.380.csv,-0.7457627118644068,9,start,1,1,1,0,1,0.8297737780917704,1,1,3,1,right,63,1,1,1
129,5claire_thisExp_2023-05-29_10h48.40.380.csv,-0.711864406779661,10,start,1,1,1,1,1,0.46505389951982196,1,1,3,1,right,63,1,1,1
130,5claire_thisExp_2023-05-29_10h48.40.380.csv,-0.6610169491525424,11,start,1,1,1,1,1,0.691295467196471,1,1,3,1,right,63,1,1,1
131,5claire_thisExp_2023-05-29_10h48.40.380.csv,-0.6440677966101694,12,start,1,1,1,0,1,0.33504264381161847,1,1,3,1,right,63,1,1,1
132,5claire_thisExp_2023-05-29_10h48.40.380.csv,-0.5932203389830508,13,start,1,1,1,1,1,0.7097092688589235,1,1,3,1,right,63,1,1,1
133,5claire_thisExp_2023-05-29_10h48.40.380.csv,-0.5423728813559322,14,start,1,1,1,1,1,0.667880653312058,1,1,3,1,right,63,1,1,1
134,5claire_thisExp_2023-05-29_10h48.40.380.csv,-0.4745762711864407,15,start,1,1,1,1,1,0.7289485930233286,1,1,3,1,right,63,1,1,1
135,5claire_thisExp_2023-05-29_10h48.40.380.csv,-0.3898305084745763,16,start,1,1,1,1,1,0.4660583568834508,1,1,3,1,right,63,1,1,1
136,5claire_thisExp_2023-05-29_10h48.40.380.csv,-0.3050847457627119,17,start,1,1,1,1,1,0.09203208544649372,1,1,3,1,right,63,1,1,1
137,5claire_thisExp_2023-05-29_10h48.40.380.csv,-0.1864406779661017,18,start,1,1,1,1,1,0.04200529414503007,1,1,3,1,right,63,1,1,1
138,5claire_thisExp_2023-05-29_10h48.40.380.csv,-0.0847457627118644,19,start,1,1,1,1,1,-0.1408725588814155,1,1,3,1,right,63,1,1,1
139,5claire_thisExp_2023-05-29_10h48.40.380.csv,0.0,20,start,1,1,1,1,1,-0.1600513881482268,1,1,3,1,right,63,1,1,1
140,5claire_thisExp_2023-05-29_10h48.40.380.csv,-1.0,1,images/toothbrush.png,2,0,1,1,1,2.878450987000471,1,0,3,0,space,63,0,0,1
141,5claire_thisExp_2023-05-29_10h48.40.380.csv,-0.9830508474576272,2,images/baby.png,2,0,0,0,1,2.674472734836213,0,0,3,0,left,63,1,1,0
142,5claire_thisExp_2023-05-29_10h48.40.380.csv,-0.9491525423728814,3,images/toothbrush.png,2,1,0,1,1,2.223466125208085,1,0,3,0,left,63,1,1,1
143,5claire_thisExp_2023-05-29_10h48.40.380.csv,-0.9152542372881356,4,images/toothbrush.png,2,1,1,1,1,0.20709546689260225,1,1,3,0,left,63,1,1,1
144,5claire_thisExp_2023-05-29_10h48.40.380.csv,-0.8813559322033898,5,images/toothbrush.png,2,1,1,1,1,0.6730465088529424,1,1,3,0,left,63,1,1,1
145,5claire_thisExp_2023-05-29_10h48.40.380.csv,-0.847457627118644,6,images/toothbrush.png,2,1,1,1,1,0.1773090149704103,1,1,3,0,left,63,1,1,1
146,5claire_thisExp_2023-05-29_10h48.40.380.csv,-0.8135593220338984,7,images/toothbrush.png,2,1,1,1,1,-0.1910394474136775,1,1,3,0,left,63,1,1,1
147,5claire_thisExp_2023-05-29_10h48.40.380.csv,-0.7627118644067796,8,images/toothbrush.png,2,1,1,1,1,-0.18765575838465653,1,1,3,0,left,63,1,1,1
148,5claire_thisExp_2023-05-29_10h48.40.380.csv,-0.7457627118644068,9,images/toothbrush.png,2,1,1,0,1,-0.3102003838823833,1,1,3,0,left,63,1,1,1
149,5claire_thisExp_2023-05-29_10h48.40.380.csv,-0.711864406779661,10,images/toothbrush.png,2,1,1,1,1,0.37658540855751393,1,1,3,0,left,63,1,1,1
150,5claire_thisExp_2023-05-29_10h48.40.380.csv,-0.6610169491525424,11,images/toothbrush.png,2,1,1,1,1,0.36748629015038237,1,1,3,0,left,63,1,1,1
151,5claire_thisExp_2023-05-29_10h48.40.380.csv,-0.6440677966101694,12,images/toothbrush.png,2,1,1,0,1,-0.20887089202749115,1,1,3,0,left,63,1,1,1
152,5claire_thisExp_2023-05-29_10h48.40.380.csv,-0.5932203389830508,13,images/toothbrush.png,2,1,1,1,1,-0.15105547491995588,1,1,3,0,left,63,1,1,1
153,5claire_thisExp_2023-05-29_10h48.40.380.csv,-0.5423728813559322,14,images/toothbrush.png,2,1,1,1,1,-0.41415273650572987,1,1,3,0,left,63,1,1,1
154,5claire_thisExp_2023-05-29_10h48.40.380.csv,-0.4745762711864407,15,images/toothbrush.png,2,1,1,1,1,-0.42924563677356775,1,1,3,0,left,63,1,1,1
155,5claire_thisExp_2023-05-29_10h48.40.380.csv,-0.3898305084745763,16,images/toothbrush.png,2,1,1,1,1,-0.18584776657051283,1,1,3,0,left,63,1,1,1
156,5claire_thisExp_2023-05-29_10h48.40.380.csv,-0.3050847457627119,17,images/toothbrush.png,2,1,1,1,1,-0.1799643372202764,1,1,3,0,left,63,1,1,1
157,5claire_thisExp_2023-05-29_10h48.40.380.csv,-0.1864406779661017,18,images/toothbrush.png,2,1,1,1,1,-1.1270117631898076,1,1,3,0,left,63,1,1,1
158,5claire_thisExp_2023-05-29_10h48.40.380.csv,-0.0847457627118644,19,images/toothbrush.png,2,1,1,1,1,-0.8535507020529692,1,1,3,0,left,63,1,1,1
159,5claire_thisExp_2023-05-29_10h48.40.380.csv,0.0,20,images/toothbrush.png,2,1,1,1,1,-0.6575870051613945,1,1,3,0,left,63,1,1,1
160,5claire_thisExp_2023-05-29_10h48.40.380.csv,-1.0,1,images/backpack.png,3,0,1,1,1,2.5437728637660415,0,0,3,0,right,63,0,1,1
161,5claire_thisExp_2023-05-29_10h48.40.380.csv,-0.9830508474576272,2,images/backpack.png,3,0,0,0,1,2.747052941783269,0,0,3,0,left,63,1,1,0
162,5claire_thisExp_2023-05-29_10h48.40.380.csv,-0.9491525423728814,3,images/car.png,3,1,0,1,1,0.3322490457769052,0,0,3,0,left,63,1,1,1
163,5claire_thisExp_2023-05-29_10h48.40.380.csv,-0.9152542372881356,4,images/car.png,3,1,1,1,1,0.09203208544649372,0,0,3,0,left,63,1,1,1
164,5claire_thisExp_2023-05-29_10h48.40.380.csv,-0.8813559322033898,5,images/car.png,3,1,1,1,1,-0.6102777027376507,0,0,3,0,left,63,1,1,1
165,5claire_thisExp_2023-05-29_10h48.40.380.csv,-0.847457627118644,6,images/car.png,3,1,1,1,1,-0.2782599338728761,0,0,3,0,left,63,1,1,1
166,5claire_thisExp_2023-05-29_10h48.40.380.csv,-0.8135593220338984,7,images/car.png,3,1,1,1,1,-0.9843019424906989,0,0,3,0,left,63,1,1,1
167,5claire_thisExp_2023-05-29_10h48.40.380.csv,-0.7627118644067796,8,images/car.png,3,1,1,1,1,-1.2106617924767327,0,0,3,0,left,63,1,1,1
168,5claire_thisExp_2023-05-29_10h48.40.380.csv,-0.7457627118644068,9,images/car.png,3,1,1,0,1,-1.564942672547549,0,0,3,0,left,63,1,1,1
169,5claire_thisExp_2023-05-29_10h48.40.380.csv,-0.711864406779661,10,images/car.png,3,1,1,1,1,-0.4027188824401392,0,0,3,0,left,63,1,1,1
170,5claire_thisExp_2023-05-29_10h48.40.380.csv,-0.6610169491525424,11,images/car.png,3,1,1,1,1,-0.9490722213985346,0,0,3,0,left,63,1,1,1
171,5claire_thisExp_2023-05-29_10h48.40.380.csv,-0.6440677966101694,12,images/car.png,3,1,1,0,1,-1.6204988597935253,0,0,3,0,left,63,1,1,1
172,5claire_thisExp_2023-05-29_10h48.40.380.csv,-0.5932203389830508,13,images/car.png,3,1,1,1,1,-1.5154922995915725,0,0,3,0,left,63,1,1,1
173,5claire_thisExp_2023-05-29_10h48.40.380.csv,-0.5423728813559322,14,images/car.png,3,1,1,1,1,-2.0317948882124828,0,0,3,0,left,63,1,1,1
174,5claire_thisExp_2023-05-29_10h48.40.380.csv,-0.4745762711864407,15,images/car.png,3,1,1,1,1,-1.9965720638575413,0,0,3,0,left,63,1,1,1
175,5claire_thisExp_2023-05-29_10h48.40.380.csv,-0.3898305084745763,16,images/car.png,3,1,1,1,1,-1.876011021675646,0,0,3,0,left,63,1,1,1
176,5claire_thisExp_2023-05-29_10h48.40.380.csv,-0.3050847457627119,17,images/car.png,3,1,1,1,1,-1.3015856331929365,0,0,3,0,left,63,1,1,1
177,5claire_thisExp_2023-05-29_10h48.40.380.csv,-0.1864406779661017,18,images/car.png,3,1,1,1,1,-1.4473190629576653,0,0,3,0,left,63,1,1,1
178,5claire_thisExp_2023-05-29_10h48.40.380.csv,-0.0847457627118644,19,images/car.png,3,1,1,1,1,-1.731605546408308,0,0,3,0,left,63,1,1,1
179,5claire_thisExp_2023-05-29_10h48.40.380.csv,0.0,20,images/car.png,3,1,1,1,1,-1.505528449043589,0,0,3,0,left,63,1,1,1
180,5PARTICIPANT_thisExp_2023-05-28_10h07.04.381.csv,-1.0,1,start,1,1,0,1,1,2.194231212798566,1,0,3,1,right,40,1,1,0
181,5PARTICIPANT_thisExp_2023-05-28_10h07.04.381.csv,-0.9830508474576272,2,start,1,0,1,0,1,1.688433918660598,1,0,3,1,space,40,0,0,1
182,5PARTICIPANT_thisExp_2023-05-28_10h07.04.381.csv,-0.9661016949152542,3,start,1,1,0,0,1,1.7743928723988558,1,0,3,1,right,40,1,1,0
183,5PARTICIPANT_thisExp_2023-05-28_10h07.04.381.csv,-0.9322033898305084,4,start,1,0,1,1,1,0.9755779892290256,1,0,3,1,space,40,0,0,1
184,5PARTICIPANT_thisExp_2023-05-28_10h07.04.381.csv,-0.8983050847457628,5,start,1,1,0,1,1,1.003385438725089,1,0,3,1,right,40,1,1,0
185,5PARTICIPANT_thisExp_2023-05-28_10h07.04.381.csv,-0.847457627118644,6,start,1,1,1,1,1,1.248238462623922,1,1,3,1,right,40,1,1,1
186,5PARTICIPANT_thisExp_2023-05-28_10h07.04.381.csv,-0.8305084745762712,7,start,1,1,1,0,1,1.1296909709053737,1,1,3,1,right,40,1,1,1
187,5PARTICIPANT_thisExp_2023-05-28_10h07.04.381.csv,-0.7627118644067796,8,start,1,1,1,1,1,1.0324368729938107,1,1,3,1,right,40,1,1,1
188,5PARTICIPANT_thisExp_2023-05-28_10h07.04.381.csv,-0.7457627118644068,9,start,1,1,1,0,1,0.6622239479064352,1,1,3,1,right,40,1,1,1
189,5PARTICIPANT_thisExp_2023-05-28_10h07.04.381.csv,-0.6271186440677966,10,start,1,1,1,1,1,0.7828964727035534,1,1,3,1,right,40,1,1,1
190,5PARTICIPANT_thisExp_2023-05-28_10h07.04.381.csv,-0.3728813559322034,11,start,1,1,1,1,1,0.5445311562311618,1,1,3,1,right,40,1,1,1
191,5PARTICIPANT_thisExp_2023-05-28_10h07.04.381.csv,-0.3559322033898305,12,start,1,1,1,0,1,0.6233146709612645,1,1,3,1,right,40,1,1,1
192,5PARTICIPANT_thisExp_2023-05-28_10h07.04.381.csv,-0.3389830508474576,13,start,1,1,1,0,1,0.2688050166820918,1,1,3,1,right,40,1,1,1
193,5PARTICIPANT_thisExp_2023-05-28_10h07.04.381.csv,-0.2711864406779661,14,start,1,1,1,1,1,0.924139846817554,1,1,3,1,right,40,1,1,1
194,5PARTICIPANT_thisExp_2023-05-28_10h07.04.381.csv,-0.2542372881355932,15,start,1,1,1,0,1,0.9357011253939783,1,1,3,1,right,40,1,1,1
195,5PARTICIPANT_thisExp_2023-05-28_10h07.04.381.csv,-0.1016949152542373,16,start,1,1,1,1,1,0.3417440305503115,1,1,3,1,right,40,1,1,1
196,5PARTICIPANT_thisExp_2023-05-28_10h07.04.381.csv,-0.06779661016949153,17,start,1,1,1,1,1,0.40252746412082163,1,1,3,1,right,40,1,1,1
197,5PARTICIPANT_thisExp_2023-05-28_10h07.04.381.csv,-0.03389830508474576,18,start,1,1,1,1,1,0.5227739572818318,1,1,3,1,right,40,1,1,1
198,5PARTICIPANT_thisExp_2023-05-28_10h07.04.381.csv,-0.01694915254237288,19,start,1,1,1,0,1,0.3656148635082036,1,1,3,1,right,40,1,1,1
199,5PARTICIPANT_thisExp_2023-05-28_10h07.04.381.csv,0.0,20,start,1,1,1,0,1,-0.1152986243634629,1,1,3,1,right,40,1,1,1
200,5PARTICIPANT_thisExp_2023-05-28_10h07.04.381.csv,-1.0,1,images/toothbrush.png,2,1,1,1,1,1.8256293537356703,1,0,3,0,left,40,1,1,1
201,5PARTICIPANT_thisExp_2023-05-28_10h07.04.381.csv,-0.9830508474576272,2,images/baby.png,2,0,1,0,1,2.2995204016212005,0,0,3,0,space,40,0,0,1
202,5PARTICIPANT_thisExp_2023-05-28_10h07.04.381.csv,-0.9661016949152542,3,images/toothbrush.png,2,1,0,0,1,0.7235308851943855,1,1,3,0,left,40,1,1,0
203,5PARTICIPANT_thisExp_2023-05-28_10h07.04.381.csv,-0.9322033898305084,4,images/baby.png,2,0,1,1,1,0.6760518851313081,0,1,3,0,space,40,0,0,1
204,5PARTICIPANT_thisExp_2023-05-28_10h07.04.381.csv,-0.8983050847457628,5,images/toothbrush.png,2,1,0,1,1,0.8293375350102107,1,1,3,0,left,40,1,1,0
205,5PARTICIPANT_thisExp_2023-05-28_10h07.04.381.csv,-0.847457627118644,6,images/toothbrush.png,2,1,1,1,1,0.7936257991261643,1,1,3,0,left,40,1,1,1
206,5PARTICIPANT_thisExp_2023-05-28_10h07.04.381.csv,-0.8305084745762712,7,images/toothbrush.png,2,1,1,0,1,-0.2965210211189854,1,1,3,0,left,40,1,1,1
207,5PARTICIPANT_thisExp_2023-05-28_10h07.04.381.csv,-0.7627118644067796,8,images/toothbrush.png,2,1,1,1,1,0.3942019158294537,1,1,3,0,left,40,1,1,1
208,5PARTICIPANT_thisExp_2023-05-28_10h07.04.381.csv,-0.7457627118644068,9,images/toothbrush.png,2,1,1,0,1,0.08828556486736044,1,1,3,0,left,40,1,1,1
209,5PARTICIPANT_thisExp_2023-05-28_10h07.04.381.csv,-0.6271186440677966,10,images/toothbrush.png,2,1,1,1,1,0.24521810563252058,1,1,3,0,left,40,1,1,1
210,5PARTICIPANT_thisExp_2023-05-28_10h07.04.381.csv,-0.3728813559322034,11,images/toothbrush.png,2,1,1,1,1,0.08507617235511926,1,1,3,0,left,40,1,1,1
211,5PARTICIPANT_thisExp_2023-05-28_10h07.04.381.csv,-0.3559322033898305,12,images/toothbrush.png,2,1,1,0,1,-0.9190445200707762,1,1,3,0,left,40,1,1,1
212,5PARTICIPANT_thisExp_2023-05-28_10h07.04.381.csv,-0.3389830508474576,13,images/toothbrush.png,2,1,1,0,1,-0.9477813989655259,1,1,3,0,left,40,1,1,1
213,5PARTICIPANT_thisExp_2023-05-28_10h07.04.381.csv,-0.2711864406779661,14,images/toothbrush.png,2,1,1,1,1,-0.008738065943285299,1,1,3,0,left,40,1,1,1
214,5PARTICIPANT_thisExp_2023-05-28_10h07.04.381.csv,-0.2542372881355932,15,images/toothbrush.png,2,1,1,0,1,-1.192373668482584,1,1,3,0,left,40,1,1,1
215,5PARTICIPANT_thisExp_2023-05-28_10h07.04.381.csv,-0.1016949152542373,16,images/toothbrush.png,2,1,1,1,1,-1.0376112671107107,1,1,3,0,left,40,1,1,1
216,5PARTICIPANT_thisExp_2023-05-28_10h07.04.381.csv,-0.06779661016949153,17,images/toothbrush.png,2,1,1,1,1,-0.2022385906343135,1,1,3,0,left,40,1,1,1
217,5PARTICIPANT_thisExp_2023-05-28_10h07.04.381.csv,-0.03389830508474576,18,images/toothbrush.png,2,1,1,1,1,0.24904518883686275,1,1,3,0,left,40,1,1,1
218,5PARTICIPANT_thisExp_2023-05-28_10h07.04.381.csv,-0.01694915254237288,19,images/toothbrush.png,2,1,1,0,1,-1.1844970278252793,1,1,3,0,left,40,1,1,1
219,5PARTICIPANT_thisExp_2023-05-28_10h07.04.381.csv,0.0,20,images/toothbrush.png,2,1,1,0,1,-1.253863573939401,1,1,3,0,left,40,1,1,1
220,5PARTICIPANT_thisExp_2023-05-28_10h07.04.381.csv,-1.0,1,images/car.png,3,1,1,1,1,0.23127043852581805,0,0,3,0,left,40,1,1,1
221,5PARTICIPANT_thisExp_2023-05-28_10h07.04.381.csv,-0.9830508474576272,2,images/backpack.png,3,0,1,0,1,1.073704652961925,0,0,3,0,space,40,0,0,1
222,5PARTICIPANT_thisExp_2023-05-28_10h07.04.381.csv,-0.9661016949152542,3,images/car.png,3,1,0,0,1,0.4887027066782201,0,1,3,0,left,40,1,1,0
223,5PARTICIPANT_thisExp_2023-05-28_10h07.04.381.csv,-0.9322033898305084,4,images/bowtie.png,3,0,1,1,1,0.9400463202285515,0,0,3,0,space,40,0,0,1
224,5PARTICIPANT_thisExp_2023-05-28_10h07.04.381.csv,-0.8983050847457628,5,images/car.png,3,1,0,1,1,-0.20665523380940748,0,1,3,0,left,40,1,1,0
225,5PARTICIPANT_thisExp_2023-05-28_10h07.04.381.csv,-0.847457627118644,6,images/car.png,3,1,1,1,1,-0.18332205712753813,0,1,3,0,left,40,1,1,1
226,5PARTICIPANT_thisExp_2023-05-28_10h07.04.381.csv,-0.8305084745762712,7,images/car.png,3,1,1,0,1,0.027809700639267233,0,1,3,0,left,40,1,1,1
227,5PARTICIPANT_thisExp_2023-05-28_10h07.04.381.csv,-0.7627118644067796,8,images/car.png,3,1,1,1,1,-1.2917117186339429,0,0,3,0,left,40,1,1,1
228,5PARTICIPANT_thisExp_2023-05-28_10h07.04.381.csv,-0.7457627118644068,9,images/car.png,3,1,1,0,1,-1.1776554960085626,0,0,3,0,left,40,1,1,1
229,5PARTICIPANT_thisExp_2023-05-28_10h07.04.381.csv,-0.6271186440677966,10,images/car.png,3,1,1,1,1,-1.0876723486297752,0,0,3,0,left,40,1,1,1
230,5PARTICIPANT_thisExp_2023-05-28_10h07.04.381.csv,-0.3728813559322034,11,images/car.png,3,1,1,1,1,-0.26944930419072116,0,0,3,0,left,40,1,1,1
231,5PARTICIPANT_thisExp_2023-05-28_10h07.04.381.csv,-0.3559322033898305,12,images/car.png,3,1,1,0,1,-1.0535433253005315,0,0,3,0,left,40,1,1,1
232,5PARTICIPANT_thisExp_2023-05-28_10h07.04.381.csv,-0.3389830508474576,13,images/car.png,3,1,1,0,1,-0.7817598389165489,0,0,3,0,left,40,1,1,1
233,5PARTICIPANT_thisExp_2023-05-28_10h07.04.381.csv,-0.2711864406779661,14,images/car.png,3,1,1,1,1,-1.0056685430253718,0,1,3,0,left,40,1,1,1
234,5PARTICIPANT_thisExp_2023-05-28_10h07.04.381.csv,-0.2542372881355932,15,images/car.png,3,1,1,0,1,-1.652345413445377,0,1,3,0,left,40,1,1,1
235,5PARTICIPANT_thisExp_2023-05-28_10h07.04.381.csv,-0.1016949152542373,16,images/car.png,3,1,1,1,1,-1.2451420813640068,0,1,3,0,left,40,1,1,1
236,5PARTICIPANT_thisExp_2023-05-28_10h07.04.381.csv,-0.06779661016949153,17,images/car.png,3,1,1,1,1,-1.3482281603134343,0,0,3,0,left,40,1,1,1
237,5PARTICIPANT_thisExp_2023-05-28_10h07.04.381.csv,-0.03389830508474576,18,images/car.png,3,1,1,1,1,-0.4222044321124625,0,0,3,0,left,40,1,1,1
238,5PARTICIPANT_thisExp_2023-05-28_10h07.04.381.csv,-0.01694915254237288,19,images/car.png,3,1,1,0,1,-0.6273594400219421,0,0,3,0,left,40,1,1,1
239,5PARTICIPANT_thisExp_2023-05-28_10h07.04.381.csv,0.0,20,images/car.png,3,1,1,0,1,-1.1341358447371563,0,0,3,0,left,40,1,1,1
240,5dc5da21d999de45a504651b_thisExp_2023-05-28_11h20.05.097.csv,-0.9491525423728814,1,start,1,0,0,1,1,2.557514091947571,1,0,3,1,space,74,0,0,0
241,5dc5da21d999de45a504651b_thisExp_2023-05-28_11h20.05.097.csv,-0.9152542372881356,2,start,1,0,0,1,1,2.5502963710519335,1,1,3,1,space,74,0,0,0
242,5dc5da21d999de45a504651b_thisExp_2023-05-28_11h20.05.097.csv,-0.8983050847457628,3,start,1,1,0,0,1,2.83983256506746,1,1,3,1,space,74,0,0,0
243,5dc5da21d999de45a504651b_thisExp_2023-05-28_11h20.05.097.csv,-0.7966101694915254,4,start,1,1,1,1,1,2.3898631011011062,1,0,3,1,right,74,1,1,0
244,5dc5da21d999de45a504651b_thisExp_2023-05-28_11h20.05.097.csv,-0.7457627118644068,5,start,1,1,1,1,1,2.846286342353477,1,1,3,1,right,74,1,1,1
245,5dc5da21d999de45a504651b_thisExp_2023-05-28_11h20.05.097.csv,-0.711864406779661,6,start,1,1,1,1,1,3.1571280725767914,1,1,3,1,right,74,1,1,1
246,5dc5da21d999de45a504651b_thisExp_2023-05-28_11h20.05.097.csv,-0.6271186440677966,7,start,1,1,1,1,1,1.9356722054169817,1,1,3,1,right,74,1,1,1
247,5dc5da21d999de45a504651b_thisExp_2023-05-28_11h20.05.097.csv,-0.6101694915254238,8,start,1,1,1,0,1,3.1755131054381933,1,1,3,1,right,74,1,1,1
248,5dc5da21d999de45a504651b_thisExp_2023-05-28_11h20.05.097.csv,-0.5932203389830508,9,start,1,0,1,0,1,2.4659531618709125,1,0,3,1,left,74,0,1,1
249,5dc5da21d999de45a504651b_thisExp_2023-05-28_11h20.05.097.csv,-0.576271186440678,10,start,1,1,0,0,1,2.2084172604625514,1,0,3,1,right,74,1,1,0
250,5dc5da21d999de45a504651b_thisExp_2023-05-28_11h20.05.097.csv,-0.5423728813559322,11,start,1,1,1,1,1,2.114724222490767,1,1,3,1,right,74,1,1,1
251,5dc5da21d999de45a504651b_thisExp_2023-05-28_11h20.05.097.csv,-0.423728813559322,12,start,1,1,1,1,1,2.362334037399258,1,1,3,1,right,74,1,1,1
252,5dc5da21d999de45a504651b_thisExp_2023-05-28_11h20.05.097.csv,-0.4067796610169492,13,start,1,1,1,0,1,2.8448919418068312,1,1,3,1,right,74,1,1,1
253,5dc5da21d999de45a504651b_thisExp_2023-05-28_11h20.05.097.csv,-0.3898305084745763,14,start,1,1,1,0,1,2.500156444994876,1,1,3,1,right,74,1,1,1
254,5dc5da21d999de45a504651b_thisExp_2023-05-28_11h20.05.097.csv,-0.3389830508474576,15,start,1,1,1,1,1,1.74775533373,1,1,3,1,right,74,1,1,1
255,5dc5da21d999de45a504651b_thisExp_2023-05-28_11h20.05.097.csv,-0.288135593220339,16,start,1,1,1,1,1,1.932043014675111,1,1,3,1,right,74,1,1,1
256,5dc5da21d999de45a504651b_thisExp_2023-05-28_11h20.05.097.csv,-0.1864406779661017,17,start,1,1,1,1,1,1.8105321545513384,1,1,3,1,right,74,1,1,1
257,5dc5da21d999de45a504651b_thisExp_2023-05-28_11h20.05.097.csv,-0.13559322033898305,18,start,1,1,1,1,1,3.2473933084265583,1,1,3,1,right,74,1,1,1
258,5dc5da21d999de45a504651b_thisExp_2023-05-28_11h20.05.097.csv,-0.03389830508474576,19,start,1,1,1,1,1,2.3429493827834698,1,1,3,1,right,74,1,1,1
259,5dc5da21d999de45a504651b_thisExp_2023-05-28_11h20.05.097.csv,0.0,20,start,1,0,1,1,1,2.298677468163029,1,0,3,1,left,74,0,1,1
260,5dc5da21d999de45a504651b_thisExp_2023-05-28_11h20.05.097.csv,-0.9491525423728814,1,images/baby.png,2,0,0,1,1,2.088265000227069,0,0,3,0,space,74,0,0,0
261,5dc5da21d999de45a504651b_thisExp_2023-05-28_11h20.05.097.csv,-0.9152542372881356,2,images/baby.png,2,0,0,1,1,1.7604751791882887,0,0,3,0,left,74,0,1,0
262,5dc5da21d999de45a504651b_thisExp_2023-05-28_11h20.05.097.csv,-0.8983050847457628,3,images/toothbrush.png,2,1,0,0,1,3.0245529393621844,1,0,3,0,left,74,0,1,0
263,5dc5da21d999de45a504651b_thisExp_2023-05-28_11h20.05.097.csv,-0.7966101694915254,4,images/toothbrush.png,2,1,1,1,1,2.719207723798087,1,1,3,0,left,74,1,1,0
264,5dc5da21d999de45a504651b_thisExp_2023-05-28_11h20.05.097.csv,-0.7457627118644068,5,images/toothbrush.png,2,1,1,1,1,2.7027092971660225,1,1,3,0,left,74,1,1,1
265,5dc5da21d999de45a504651b_thisExp_2023-05-28_11h20.05.097.csv,-0.711864406779661,6,images/toothbrush.png,2,1,1,1,1,1.1513312330003387,1,1,3,0,left,74,1,1,1
266,5dc5da21d999de45a504651b_thisExp_2023-05-28_11h20.05.097.csv,-0.6271186440677966,7,images/toothbrush.png,2,1,1,1,1,1.3849935153868425,1,1,3,0,left,74,1,1,1
267,5dc5da21d999de45a504651b_thisExp_2023-05-28_11h20.05.097.csv,-0.6101694915254238,8,images/toothbrush.png,2,1,1,0,1,1.1101784750394739,1,1,3,0,left,74,1,1,1
268,5dc5da21d999de45a504651b_thisExp_2023-05-28_11h20.05.097.csv,-0.5932203389830508,9,images/baby.png,2,0,1,0,1,3.318007783273406,0,0,3,0,space,74,0,0,1
269,5dc5da21d999de45a504651b_thisExp_2023-05-28_11h20.05.097.csv,-0.576271186440678,10,images/toothbrush.png,2,1,0,0,1,2.5654338554580405,1,1,3,0,left,74,1,1,0
270,5dc5da21d999de45a504651b_thisExp_2023-05-28_11h20.05.097.csv,-0.5423728813559322,11,images/toothbrush.png,2,1,1,1,1,1.9027341956703496,1,1,3,0,left,74,1,1,1
271,5dc5da21d999de45a504651b_thisExp_2023-05-28_11h20.05.097.csv,-0.423728813559322,12,images/toothbrush.png,2,1,1,1,1,1.6353005719598277,1,1,3,0,left,74,1,1,1
272,5dc5da21d999de45a504651b_thisExp_2023-05-28_11h20.05.097.csv,-0.4067796610169492,13,images/toothbrush.png,2,1,1,0,1,1.9737754237748437,1,1,3,0,left,74,1,1,1
273,5dc5da21d999de45a504651b_thisExp_2023-05-28_11h20.05.097.csv,-0.3898305084745763,14,images/toothbrush.png,2,1,1,0,1,1.6033594761136298,1,1,3,0,left,74,1,1,1
274,5dc5da21d999de45a504651b_thisExp_2023-05-28_11h20.05.097.csv,-0.3389830508474576,15,images/toothbrush.png,2,1,1,1,1,1.7434966659794053,1,1,3,0,left,74,1,1,1
275,5dc5da21d999de45a504651b_thisExp_2023-05-28_11h20.05.097.csv,-0.288135593220339,16,images/toothbrush.png,2,1,1,1,1,1.046862749866026,1,1,3,0,left,74,1,1,1
276,5dc5da21d999de45a504651b_thisExp_2023-05-28_11h20.05.097.csv,-0.1864406779661017,17,images/toothbrush.png,2,1,1,1,1,0.08645288773019906,1,1,3,0,left,74,1,1,1
277,5dc5da21d999de45a504651b_thisExp_2023-05-28_11h20.05.097.csv,-0.13559322033898305,18,images/toothbrush.png,2,1,1,1,1,-0.311565012915113,1,1,3,0,left,74,1,1,1
278,5dc5da21d999de45a504651b_thisExp_2023-05-28_11h20.05.097.csv,-0.03389830508474576,19,images/toothbrush.png,2,1,1,1,1,2.9629249505778734,1,1,3,0,left,74,1,1,1
279,5dc5da21d999de45a504651b_thisExp_2023-05-28_11h20.05.097.csv,0.0,20,images/baby.png,2,0,1,1,1,2.6797604599285867,0,1,3,0,space,74,0,0,1
280,5dc5da21d999de45a504651b_thisExp_2023-05-28_11h20.05.097.csv,-0.9491525423728814,1,images/backpack.png,3,0,0,1,1,1.675600114687769,0,0,3,0,space,74,0,0,0
281,5dc5da21d999de45a504651b_thisExp_2023-05-28_11h20.05.097.csv,-0.9152542372881356,2,images/backpack.png,3,0,0,1,1,1.7811028890395262,0,0,3,0,left,74,0,1,0
282,5dc5da21d999de45a504651b_thisExp_2023-05-28_11h20.05.097.csv,-0.8983050847457628,3,images/car.png,3,1,0,0,1,2.5489997592445146,0,0,3,0,left,74,0,1,0
283,5dc5da21d999de45a504651b_thisExp_2023-05-28_11h20.05.097.csv,-0.7966101694915254,4,images/car.png,3,1,1,1,1,1.9579798731426437,0,0,3,0,left,74,1,1,0
284,5dc5da21d999de45a504651b_thisExp_2023-05-28_11h20.05.097.csv,-0.7457627118644068,5,images/car.png,3,1,1,1,1,1.705529604959608,0,1,3,0,left,74,1,1,1
285,5dc5da21d999de45a504651b_thisExp_2023-05-28_11h20.05.097.csv,-0.711864406779661,6,images/car.png,3,1,1,1,1,1.0728157336240995,0,0,3,0,left,74,1,1,1
286,5dc5da21d999de45a504651b_thisExp_2023-05-28_11h20.05.097.csv,-0.6271186440677966,7,images/car.png,3,1,1,1,1,1.366984112585391,0,0,3,0,left,74,1,1,1
287,5dc5da21d999de45a504651b_thisExp_2023-05-28_11h20.05.097.csv,-0.6101694915254238,8,images/car.png,3,1,1,0,1,1.3990871829186429,0,0,3,0,left,74,1,1,1
288,5dc5da21d999de45a504651b_thisExp_2023-05-28_11h20.05.097.csv,-0.5932203389830508,9,images/backpack.png,3,0,1,0,1,2.492709461851021,0,0,3,0,right,74,0,1,1
289,5dc5da21d999de45a504651b_thisExp_2023-05-28_11h20.05.097.csv,-0.576271186440678,10,images/car.png,3,1,0,0,1,1.0838370030859554,0,0,3,0,left,74,1,1,0
290,5dc5da21d999de45a504651b_thisExp_2023-05-28_11h20.05.097.csv,-0.5423728813559322,11,images/car.png,3,1,1,1,1,1.1282358137341808,0,0,3,0,left,74,1,1,1
291,5dc5da21d999de45a504651b_thisExp_2023-05-28_11h20.05.097.csv,-0.423728813559322,12,images/car.png,3,1,1,1,1,1.0260774374848614,0,0,3,0,left,74,1,1,1
292,5dc5da21d999de45a504651b_thisExp_2023-05-28_11h20.05.097.csv,-0.4067796610169492,13,images/car.png,3,1,1,0,1,0.908822917026634,0,0,3,0,left,74,1,1,1
293,5dc5da21d999de45a504651b_thisExp_2023-05-28_11h20.05.097.csv,-0.3898305084745763,14,images/car.png,3,1,1,0,1,1.2373882378653396,0,0,3,0,left,74,1,1,1
294,5dc5da21d999de45a504651b_thisExp_2023-05-28_11h20.05.097.csv,-0.3389830508474576,15,images/car.png,3,1,1,1,1,1.0697668985542732,0,1,3,0,left,74,1,1,1
295,5dc5da21d999de45a504651b_thisExp_2023-05-28_11h20.05.097.csv,-0.288135593220339,16,images/car.png,3,1,1,1,1,1.0185584698217334,0,1,3,0,left,74,1,1,1
296,5dc5da21d999de45a504651b_thisExp_2023-05-28_11h20.05.097.csv,-0.1864406779661017,17,images/car.png,3,1,1,1,1,1.0019545346266745,0,0,3,0,left,74,1,1,1
297,5dc5da21d999de45a504651b_thisExp_2023-05-28_11h20.05.097.csv,-0.13559322033898305,18,images/car.png,3,1,1,1,1,1.103865134949558,0,0,3,0,left,74,1,1,1
298,5dc5da21d999de45a504651b_thisExp_2023-05-28_11h20.05.097.csv,-0.03389830508474576,19,images/car.png,3,1,1,1,1,1.57802980127442,0,1,3,0,left,74,1,1,1
299,5dc5da21d999de45a504651b_thisExp_2023-05-28_11h20.05.097.csv,0.0,20,images/backpack.png,3,0,1,1,1,2.3434582862036253,0,0,3,0,right,74,0,1,1
300,55d22025cc2b18000c0b9d9c_thisExp_2023-05-28_10h07.02.505.csv,-1.0,1,start,1,0,0,1,1,3.205620358065751,1,0,3,1,left,33,0,1,0
301,55d22025cc2b18000c0b9d9c_thisExp_2023-05-28_10h07.02.505.csv,-0.9152542372881356,2,start,1,1,0,1,1,2.819233730062825,1,0,3,1,right,33,1,1,0
302,55d22025cc2b18000c0b9d9c_thisExp_2023-05-28_10h07.02.505.csv,-0.8983050847457628,3,start,1,1,1,0,1,1.510103646846177,1,1,3,1,right,33,1,1,1
303,55d22025cc2b18000c0b9d9c_thisExp_2023-05-28_10h07.02.505.csv,-0.847457627118644,4,start,1,1,1,1,1,1.3941385151429397,1,1,3,1,right,33,1,1,1
304,55d22025cc2b18000c0b9d9c_thisExp_2023-05-28_10h07.02.505.csv,-0.7288135593220338,5,start,1,1,1,1,1,2.029778496660735,1,1,3,1,right,33,1,1,1
305,55d22025cc2b18000c0b9d9c_thisExp_2023-05-28_10h07.02.505.csv,-0.711864406779661,6,start,1,1,1,0,1,1.113270989676769,1,1,3,1,right,33,1,1,1
306,55d22025cc2b18000c0b9d9c_thisExp_2023-05-28_10h07.02.505.csv,-0.6779661016949152,7,start,1,1,1,1,1,0.8061633170286486,1,1,3,1,right,33,1,1,1
307,55d22025cc2b18000c0b9d9c_thisExp_2023-05-28_10h07.02.505.csv,-0.6610169491525424,8,start,1,1,1,0,1,-0.009343515003152466,1,1,3,1,right,33,1,1,1
308,55d22025cc2b18000c0b9d9c_thisExp_2023-05-28_10h07.02.505.csv,-0.576271186440678,9,start,1,1,1,1,1,0.2530906276821619,1,1,3,1,right,33,1,1,1
309,55d22025cc2b18000c0b9d9c_thisExp_2023-05-28_10h07.02.505.csv,-0.559322033898305,10,start,1,1,1,0,1,1.0631232707378062,1,1,3,1,right,33,1,1,1
310,55d22025cc2b18000c0b9d9c_thisExp_2023-05-28_10h07.02.505.csv,-0.5254237288135594,11,start,1,1,1,1,1,1.1193948278506383,1,1,3,1,right,33,1,1,1
311,55d22025cc2b18000c0b9d9c_thisExp_2023-05-28_10h07.02.505.csv,-0.4915254237288136,12,start,1,1,1,1,1,0.25433209277022684,1,1,3,1,right,33,1,1,1
312,55d22025cc2b18000c0b9d9c_thisExp_2023-05-28_10h07.02.505.csv,-0.4576271186440678,13,start,1,1,1,1,1,2.5172044160871625,1,1,3,1,right,33,1,1,1
313,55d22025cc2b18000c0b9d9c_thisExp_2023-05-28_10h07.02.505.csv,-0.3898305084745763,14,start,1,1,1,1,1,0.08130345106403479,1,1,3,1,right,33,1,1,1
314,55d22025cc2b18000c0b9d9c_thisExp_2023-05-28_10h07.02.505.csv,-0.3559322033898305,15,start,1,1,1,1,1,-0.5471438864401024,1,1,3,1,right,33,1,1,1
315,55d22025cc2b18000c0b9d9c_thisExp_2023-05-28_10h07.02.505.csv,-0.23728813559322035,16,start,1,1,1,1,1,1.021587245483894,1,1,3,1,right,33,1,1,1
316,55d22025cc2b18000c0b9d9c_thisExp_2023-05-28_10h07.02.505.csv,-0.1694915254237288,17,start,1,1,1,1,1,0.2969143237653586,1,1,3,1,right,33,1,1,1
317,55d22025cc2b18000c0b9d9c_thisExp_2023-05-28_10h07.02.505.csv,-0.0847457627118644,18,start,1,1,1,1,1,-0.059325466084814774,1,1,3,1,right,33,1,1,1
318,55d22025cc2b18000c0b9d9c_thisExp_2023-05-28_10h07.02.505.csv,-0.05084745762711865,19,start,1,1,1,1,1,-0.07440032257625016,1,1,3,1,right,33,0,1,1
319,55d22025cc2b18000c0b9d9c_thisExp_2023-05-28_10h07.02.505.csv,0.0,20,start,1,1,1,1,1,0.3051289860555016,1,1,3,1,right,33,1,1,0
320,55d22025cc2b18000c0b9d9c_thisExp_2023-05-28_10h07.02.505.csv,-1.0,1,images/baby.png,2,0,1,1,1,2.968104106436517,0,0,3,0,space,33,0,0,1
321,55d22025cc2b18000c0b9d9c_thisExp_2023-05-28_10h07.02.505.csv,-0.9152542372881356,2,images/toothbrush.png,2,1,0,1,1,0.7071487001957589,1,0,3,0,left,33,1,1,0
322,55d22025cc2b18000c0b9d9c_thisExp_2023-05-28_10h07.02.505.csv,-0.8983050847457628,3,images/toothbrush.png,2,1,1,0,1,0.19235439249432926,1,1,3,0,left,33,1,1,1
323,55d22025cc2b18000c0b9d9c_thisExp_2023-05-28_10h07.02.505.csv,-0.847457627118644,4,images/toothbrush.png,2,1,1,1,1,-0.5526898278646895,1,1,3,0,left,33,1,1,1
324,55d22025cc2b18000c0b9d9c_thisExp_2023-05-28_10h07.02.505.csv,-0.7288135593220338,5,images/toothbrush.png,2,1,1,1,1,-0.1790070558261249,1,1,3,0,left,33,1,1,1
325,55d22025cc2b18000c0b9d9c_thisExp_2023-05-28_10h07.02.505.csv,-0.711864406779661,6,images/toothbrush.png,2,1,1,0,1,-0.887460350206278,1,1,3,0,left,33,1,1,1
326,55d22025cc2b18000c0b9d9c_thisExp_2023-05-28_10h07.02.505.csv,-0.6779661016949152,7,images/toothbrush.png,2,1,1,1,1,-1.1344467416773258,1,1,3,0,left,33,1,1,1
327,55d22025cc2b18000c0b9d9c_thisExp_2023-05-28_10h07.02.505.csv,-0.6610169491525424,8,images/toothbrush.png,2,1,1,0,1,-0.9771028712709124,1,1,3,0,left,33,1,1,1
328,55d22025cc2b18000c0b9d9c_thisExp_2023-05-28_10h07.02.505.csv,-0.576271186440678,9,images/toothbrush.png,2,1,1,1,1,-1.1596369905058843,1,1,3,0,left,33,1,1,1
329,55d22025cc2b18000c0b9d9c_thisExp_2023-05-28_10h07.02.505.csv,-0.559322033898305,10,images/toothbrush.png,2,1,1,0,1,-0.5447271754416722,1,1,3,0,left,33,1,1,1
330,55d22025cc2b18000c0b9d9c_thisExp_2023-05-28_10h07.02.505.csv,-0.5254237288135594,11,images/toothbrush.png,2,1,1,1,1,-0.9573731769753849,1,1,3,0,left,33,1,1,1
331,55d22025cc2b18000c0b9d9c_thisExp_2023-05-28_10h07.02.505.csv,-0.4915254237288136,12,images/toothbrush.png,2,1,1,1,1,-1.3302921710046058,1,1,3,0,left,33,1,1,1
332,55d22025cc2b18000c0b9d9c_thisExp_2023-05-28_10h07.02.505.csv,-0.4576271186440678,13,images/toothbrush.png,2,1,1,1,1,-1.2837377727947985,1,1,3,0,left,33,1,1,1
333,55d22025cc2b18000c0b9d9c_thisExp_2023-05-28_10h07.02.505.csv,-0.3898305084745763,14,images/toothbrush.png,2,1,1,1,1,-0.27496330004400615,1,1,3,0,left,33,1,1,1
334,55d22025cc2b18000c0b9d9c_thisExp_2023-05-28_10h07.02.505.csv,-0.3559322033898305,15,images/toothbrush.png,2,1,1,1,1,-1.1092688688566386,1,1,3,0,left,33,1,1,1
335,55d22025cc2b18000c0b9d9c_thisExp_2023-05-28_10h07.02.505.csv,-0.23728813559322035,16,images/toothbrush.png,2,1,1,1,1,-0.8955081926916266,1,1,3,0,left,33,1,1,1
336,55d22025cc2b18000c0b9d9c_thisExp_2023-05-28_10h07.02.505.csv,-0.1694915254237288,17,images/toothbrush.png,2,1,1,1,1,-1.1233149013084816,1,1,3,0,left,33,1,1,1
337,55d22025cc2b18000c0b9d9c_thisExp_2023-05-28_10h07.02.505.csv,-0.0847457627118644,18,images/toothbrush.png,2,1,1,1,1,-1.4731602941415527,1,1,3,0,left,33,1,1,1
338,55d22025cc2b18000c0b9d9c_thisExp_2023-05-28_10h07.02.505.csv,-0.05084745762711865,19,images/toothbrush.png,2,1,1,1,1,-0.7031975164134467,1,1,3,0,left,33,0,1,1
339,55d22025cc2b18000c0b9d9c_thisExp_2023-05-28_10h07.02.505.csv,0.0,20,images/toothbrush.png,2,1,1,1,1,-1.5687759307152107,1,1,3,0,left,33,1,1,0
340,55d22025cc2b18000c0b9d9c_thisExp_2023-05-28_10h07.02.505.csv,-1.0,1,images/backpack.png,3,0,1,1,1,3.4069938827759634,0,0,3,0,space,33,0,0,1
341,55d22025cc2b18000c0b9d9c_thisExp_2023-05-28_10h07.02.505.csv,-0.9152542372881356,2,images/car.png,3,1,0,1,1,0.07705362944229147,0,0,3,0,left,33,1,1,0
342,55d22025cc2b18000c0b9d9c_thisExp_2023-05-28_10h07.02.505.csv,-0.8983050847457628,3,images/car.png,3,1,1,0,1,-0.5744756508424468,0,0,3,0,left,33,1,1,1
343,55d22025cc2b18000c0b9d9c_thisExp_2023-05-28_10h07.02.505.csv,-0.847457627118644,4,images/car.png,3,1,1,1,1,-0.8942846516115405,0,0,3,0,left,33,1,1,1
344,55d22025cc2b18000c0b9d9c_thisExp_2023-05-28_10h07.02.505.csv,-0.7288135593220338,5,images/car.png,3,1,1,1,1,-0.31361545447828537,0,0,3,0,left,33,1,1,1
345,55d22025cc2b18000c0b9d9c_thisExp_2023-05-28_10h07.02.505.csv,-0.711864406779661,6,images/car.png,3,1,1,0,1,-0.984837274409265,0,0,3,0,left,33,1,1,1
346,55d22025cc2b18000c0b9d9c_thisExp_2023-05-28_10h07.02.505.csv,-0.6779661016949152,7,images/car.png,3,1,1,1,1,-1.468806782694355,0,0,3,0,left,33,1,1,1
347,55d22025cc2b18000c0b9d9c_thisExp_2023-05-28_10h07.02.505.csv,-0.6610169491525424,8,images/car.png,3,1,1,0,1,-0.9699552564598479,0,0,3,0,left,33,1,1,1
348,55d22025cc2b18000c0b9d9c_thisExp_2023-05-28_10h07.02.505.csv,-0.576271186440678,9,images/car.png,3,1,1,1,1,-1.2224762758904957,0,0,3,0,left,33,1,1,1
349,55d22025cc2b18000c0b9d9c_thisExp_2023-05-28_10h07.02.505.csv,-0.559322033898305,10,images/car.png,3,1,1,0,1,-0.41309413527265554,0,0,3,0,left,33,1,1,1
350,55d22025cc2b18000c0b9d9c_thisExp_2023-05-28_10h07.02.505.csv,-0.5254237288135594,11,images/car.png,3,1,1,1,1,-1.0808706071919527,0,0,3,0,left,33,1,1,1
351,55d22025cc2b18000c0b9d9c_thisExp_2023-05-28_10h07.02.505.csv,-0.4915254237288136,12,images/car.png,3,1,1,1,1,-1.8611095473628483,0,0,3,0,left,33,1,1,1
352,55d22025cc2b18000c0b9d9c_thisExp_2023-05-28_10h07.02.505.csv,-0.4576271186440678,13,images/car.png,3,1,1,1,1,-1.8213942743577458,0,0,3,0,left,33,1,1,1
353,55d22025cc2b18000c0b9d9c_thisExp_2023-05-28_10h07.02.505.csv,-0.3898305084745763,14,images/car.png,3,1,1,1,1,-1.9484132792734319,0,0,3,0,left,33,1,1,1
354,55d22025cc2b18000c0b9d9c_thisExp_2023-05-28_10h07.02.505.csv,-0.3559322033898305,15,images/car.png,3,1,1,1,1,-1.7350011354094461,0,0,3,0,left,33,1,1,1
355,55d22025cc2b18000c0b9d9c_thisExp_2023-05-28_10h07.02.505.csv,-0.23728813559322035,16,images/car.png,3,1,1,1,1,-1.2093204106525313,0,0,3,0,left,33,1,1,1
356,55d22025cc2b18000c0b9d9c_thisExp_2023-05-28_10h07.02.505.csv,-0.1694915254237288,17,images/car.png,3,1,1,1,1,-1.8257299887992084,0,0,3,0,left,33,1,1,1
357,55d22025cc2b18000c0b9d9c_thisExp_2023-05-28_10h07.02.505.csv,-0.0847457627118644,18,images/car.png,3,1,1,1,1,-1.6144504542576446,0,0,3,0,left,33,1,1,1
358,55d22025cc2b18000c0b9d9c_thisExp_2023-05-28_10h07.02.505.csv,-0.05084745762711865,19,images/car.png,3,1,1,1,1,-0.3293377477206134,0,0,3,0,space,33,0,0,1
359,55d22025cc2b18000c0b9d9c_thisExp_2023-05-28_10h07.02.505.csv,0.0,20,images/car.png,3,1,1,1,1,-1.9058244255160277,0,0,3,0,left,33,1,1,0
360,60c770c2798ff49897e4826a_thisExp_2023-05-28_10h06.59.843.csv,-0.9830508474576272,1,start,1,0,0,1,1,0.9966902989427256,1,0,3,1,space,80,0,0,0
361,60c770c2798ff49897e4826a_thisExp_2023-05-28_10h06.59.843.csv,-0.9491525423728814,2,start,1,0,0,1,1,0.46599560784819666,1,1,3,1,space,80,0,0,0
362,60c770c2798ff49897e4826a_thisExp_2023-05-28_10h06.59.843.csv,-0.864406779661017,3,start,1,0,0,1,1,0.29408652012477515,1,1,3,1,space,80,0,0,0
363,60c770c2798ff49897e4826a_thisExp_2023-05-28_10h06.59.843.csv,-0.847457627118644,4,start,1,1,0,0,1,1.1352656063161453,1,1,3,1,space,80,0,0,0
364,60c770c2798ff49897e4826a_thisExp_2023-05-28_10h06.59.843.csv,-0.7796610169491526,5,start,1,1,1,1,1,0.8592546634908724,1,1,3,1,space,80,0,0,0
365,60c770c2798ff49897e4826a_thisExp_2023-05-28_10h06.59.843.csv,-0.7627118644067796,6,start,1,0,1,0,1,0.08562708596743697,1,1,3,1,space,80,0,0,0
366,60c770c2798ff49897e4826a_thisExp_2023-05-28_10h06.59.843.csv,-0.6779661016949152,7,start,1,1,0,1,1,2.167429524967589,1,0,3,1,right,80,1,1,0
367,60c770c2798ff49897e4826a_thisExp_2023-05-28_10h06.59.843.csv,-0.5254237288135594,8,start,1,1,1,1,1,0.7614598207420326,1,1,3,1,right,80,1,1,1
368,60c770c2798ff49897e4826a_thisExp_2023-05-28_10h06.59.843.csv,-0.4745762711864407,9,start,1,1,1,1,1,0.6105261518716084,1,1,3,1,right,80,1,1,1
369,60c770c2798ff49897e4826a_thisExp_2023-05-28_10h06.59.843.csv,-0.4576271186440678,10,start,1,1,1,0,1,0.5639492420882635,1,1,3,1,right,80,1,1,1
370,60c770c2798ff49897e4826a_thisExp_2023-05-28_10h06.59.843.csv,-0.423728813559322,11,start,1,1,1,1,1,0.25611400298411857,1,1,3,1,right,80,1,1,1
371,60c770c2798ff49897e4826a_thisExp_2023-05-28_10h06.59.843.csv,-0.3898305084745763,12,start,1,1,1,1,1,0.22025939613434672,1,1,3,1,right,80,1,1,1
372,60c770c2798ff49897e4826a_thisExp_2023-05-28_10h06.59.843.csv,-0.3559322033898305,13,start,1,0,1,1,1,0.1239859797809911,1,0,3,1,space,80,0,0,1
373,60c770c2798ff49897e4826a_thisExp_2023-05-28_10h06.59.843.csv,-0.22033898305084745,14,start,1,1,0,1,1,1.545773675665213,1,0,3,1,right,80,1,1,0
374,60c770c2798ff49897e4826a_thisExp_2023-05-28_10h06.59.843.csv,-0.1694915254237288,15,start,1,1,1,1,1,0.482179205175869,1,1,3,1,right,80,1,1,1
375,60c770c2798ff49897e4826a_thisExp_2023-05-28_10h06.59.843.csv,-0.15254237288135594,16,start,1,1,1,0,1,0.28487814511904663,1,1,3,1,right,80,1,1,1
376,60c770c2798ff49897e4826a_thisExp_2023-05-28_10h06.59.843.csv,-0.1016949152542373,17,start,1,1,1,1,1,0.24834335233595192,1,1,3,1,right,80,1,1,1
377,60c770c2798ff49897e4826a_thisExp_2023-05-28_10h06.59.843.csv,-0.0847457627118644,18,start,1,1,1,0,1,-0.027268427154193777,1,1,3,1,right,80,1,1,1
378,60c770c2798ff49897e4826a_thisExp_2023-05-28_10h06.59.843.csv,-0.05084745762711865,19,start,1,1,1,1,1,0.20497958068653863,1,1,3,1,right,80,1,1,1
379,60c770c2798ff49897e4826a_thisExp_2023-05-28_10h06.59.843.csv,0.0,20,start,1,1,1,1,1,0.16915188274531223,1,1,3,1,right,80,1,1,1
380,60c770c2798ff49897e4826a_thisExp_2023-05-28_10h06.59.843.csv,-0.9830508474576272,1,images/baby.png,2,0,1,1,1,0.7777640262798243,0,0,3,0,space,80,0,0,1
381,60c770c2798ff49897e4826a_thisExp_2023-05-28_10h06.59.843.csv,-0.9491525423728814,2,images/baby.png,2,0,0,1,1,-0.2975977372391573,0,1,3,0,space,80,0,0,0
382,60c770c2798ff49897e4826a_thisExp_2023-05-28_10h06.59.843.csv,-0.864406779661017,3,images/baby.png,2,0,0,1,1,-1.0378935536334037,0,1,3,0,space,80,0,0,0
383,60c770c2798ff49897e4826a_thisExp_2023-05-28_10h06.59.843.csv,-0.847457627118644,4,images/toothbrush.png,2,1,0,0,1,-1.1223928173335131,1,0,3,0,space,80,0,0,0
384,60c770c2798ff49897e4826a_thisExp_2023-05-28_10h06.59.843.csv,-0.7796610169491526,5,images/toothbrush.png,2,1,1,1,1,0.8681503565462201,1,1,3,0,space,80,0,0,0
385,60c770c2798ff49897e4826a_thisExp_2023-05-28_10h06.59.843.csv,-0.7627118644067796,6,images/toothbrush.png,2,0,1,0,1,-1.2167203771484385,1,1,3,0,space,80,0,0,0
386,60c770c2798ff49897e4826a_thisExp_2023-05-28_10h06.59.843.csv,-0.6779661016949152,7,images/toothbrush.png,2,1,0,1,1,1.8937141917510485,1,0,3,0,left,80,1,1,0
387,60c770c2798ff49897e4826a_thisExp_2023-05-28_10h06.59.843.csv,-0.5254237288135594,8,images/toothbrush.png,2,1,1,1,1,-0.0944205756194919,1,1,3,0,left,80,1,1,1
388,60c770c2798ff49897e4826a_thisExp_2023-05-28_10h06.59.843.csv,-0.4745762711864407,9,images/toothbrush.png,2,1,1,1,1,-0.4998856837276563,1,1,3,0,left,80,1,1,1
389,60c770c2798ff49897e4826a_thisExp_2023-05-28_10h06.59.843.csv,-0.4576271186440678,10,images/toothbrush.png,2,1,1,0,1,-0.5068336024964532,1,1,3,0,left,80,1,1,1
390,60c770c2798ff49897e4826a_thisExp_2023-05-28_10h06.59.843.csv,-0.423728813559322,11,images/toothbrush.png,2,1,1,1,1,-0.454445290329883,1,1,3,0,left,80,1,1,1
391,60c770c2798ff49897e4826a_thisExp_2023-05-28_10h06.59.843.csv,-0.3898305084745763,12,images/toothbrush.png,2,1,1,1,1,-0.6778645570287883,1,1,3,0,left,80,1,1,1
392,60c770c2798ff49897e4826a_thisExp_2023-05-28_10h06.59.843.csv,-0.3559322033898305,13,images/baby.png,2,0,1,1,1,2.3611841352969813,0,0,3,0,right,80,0,1,1
393,60c770c2798ff49897e4826a_thisExp_2023-05-28_10h06.59.843.csv,-0.22033898305084745,14,images/toothbrush.png,2,1,0,1,1,0.5878977698408479,1,1,3,0,left,80,1,1,0
394,60c770c2798ff49897e4826a_thisExp_2023-05-28_10h06.59.843.csv,-0.1694915254237288,15,images/toothbrush.png,2,1,1,1,1,0.8050909787819295,1,1,3,0,left,80,1,1,1
395,60c770c2798ff49897e4826a_thisExp_2023-05-28_10h06.59.843.csv,-0.15254237288135594,16,images/toothbrush.png,2,1,1,0,1,0.24255394483403306,1,1,3,0,left,80,1,1,1
396,60c770c2798ff49897e4826a_thisExp_2023-05-28_10h06.59.843.csv,-0.1016949152542373,17,images/toothbrush.png,2,1,1,1,1,-0.10658348540278341,1,1,3,0,left,80,1,1,1
397,60c770c2798ff49897e4826a_thisExp_2023-05-28_10h06.59.843.csv,-0.0847457627118644,18,images/toothbrush.png,2,1,1,0,1,-0.6824050840280432,1,1,3,0,left,80,1,1,1
398,60c770c2798ff49897e4826a_thisExp_2023-05-28_10h06.59.843.csv,-0.05084745762711865,19,images/toothbrush.png,2,1,1,1,1,-0.4257188371354324,1,1,3,0,left,80,1,1,1
399,60c770c2798ff49897e4826a_thisExp_2023-05-28_10h06.59.843.csv,0.0,20,images/toothbrush.png,2,1,1,1,1,-0.789878369519717,1,1,3,0,left,80,1,1,1
400,60c770c2798ff49897e4826a_thisExp_2023-05-28_10h06.59.843.csv,-0.9830508474576272,1,images/backpack.png,3,0,1,1,1,2.792734427932739,0,0,3,0,left,80,0,1,1
401,60c770c2798ff49897e4826a_thisExp_2023-05-28_10h06.59.843.csv,-0.9491525423728814,2,images/bowtie.png,3,0,0,1,1,2.325275702913744,0,0,3,0,right,80,0,1,0
402,60c770c2798ff49897e4826a_thisExp_2023-05-28_10h06.59.843.csv,-0.864406779661017,3,images/bowtie.png,3,0,0,1,1,1.744388297812037,0,1,3,0,right,80,0,1,0
403,60c770c2798ff49897e4826a_thisExp_2023-05-28_10h06.59.843.csv,-0.847457627118644,4,images/car.png,3,1,0,0,1,0.2542545463392625,0,0,3,0,left,80,0,1,0
404,60c770c2798ff49897e4826a_thisExp_2023-05-28_10h06.59.843.csv,-0.7796610169491526,5,images/car.png,3,1,1,1,1,0.3447238128189779,0,0,3,0,left,80,0,1,0
405,60c770c2798ff49897e4826a_thisExp_2023-05-28_10h06.59.843.csv,-0.7627118644067796,6,images/backpack.png,3,0,1,0,1,2.311980814634408,0,0,3,0,left,80,0,1,0
406,60c770c2798ff49897e4826a_thisExp_2023-05-28_10h06.59.843.csv,-0.6779661016949152,7,images/car.png,3,1,0,1,1,0.850065455631364,0,0,3,0,left,80,1,1,0
407,60c770c2798ff49897e4826a_thisExp_2023-05-28_10h06.59.843.csv,-0.5254237288135594,8,images/car.png,3,1,1,1,1,-0.6380909748118669,0,0,3,0,left,80,1,1,1
408,60c770c2798ff49897e4826a_thisExp_2023-05-28_10h06.59.843.csv,-0.4745762711864407,9,images/car.png,3,1,1,1,1,-0.7778339887271393,0,0,3,0,left,80,1,1,1
409,60c770c2798ff49897e4826a_thisExp_2023-05-28_10h06.59.843.csv,-0.4576271186440678,10,images/car.png,3,1,1,0,1,-0.5335826108886068,0,0,3,0,left,80,1,1,1
410,60c770c2798ff49897e4826a_thisExp_2023-05-28_10h06.59.843.csv,-0.423728813559322,11,images/car.png,3,1,1,1,1,-1.144132803969919,0,1,3,0,left,80,1,1,1
411,60c770c2798ff49897e4826a_thisExp_2023-05-28_10h06.59.843.csv,-0.3898305084745763,12,images/car.png,3,1,1,1,1,-1.0078579253996456,0,1,3,0,left,80,1,1,1
412,60c770c2798ff49897e4826a_thisExp_2023-05-28_10h06.59.843.csv,-0.3559322033898305,13,images/bowtie.png,3,0,1,1,1,-1.5361874506945077,0,0,3,0,right,80,0,1,1
413,60c770c2798ff49897e4826a_thisExp_2023-05-28_10h06.59.843.csv,-0.22033898305084745,14,images/car.png,3,1,0,1,1,0.4262476472906929,0,0,3,0,left,80,1,1,0
414,60c770c2798ff49897e4826a_thisExp_2023-05-28_10h06.59.843.csv,-0.1694915254237288,15,images/car.png,3,1,1,1,1,-0.9215545615492542,0,0,3,0,left,80,1,1,1
415,60c770c2798ff49897e4826a_thisExp_2023-05-28_10h06.59.843.csv,-0.15254237288135594,16,images/car.png,3,1,1,0,1,-1.1494846190418662,0,0,3,0,left,80,1,1,1
416,60c770c2798ff49897e4826a_thisExp_2023-05-28_10h06.59.843.csv,-0.1016949152542373,17,images/car.png,3,1,1,1,1,-0.52678564334472,0,0,3,0,left,80,1,1,1
417,60c770c2798ff49897e4826a_thisExp_2023-05-28_10h06.59.843.csv,-0.0847457627118644,18,images/car.png,3,1,1,0,1,-0.9395593588135094,0,0,3,0,left,80,1,1,1
418,60c770c2798ff49897e4826a_thisExp_2023-05-28_10h06.59.843.csv,-0.05084745762711865,19,images/car.png,3,1,1,1,1,-1.1141321003261466,0,0,3,0,left,80,1,1,1
419,60c770c2798ff49897e4826a_thisExp_2023-05-28_10h06.59.843.csv,0.0,20,images/car.png,3,1,1,1,1,-1.2496677635880655,0,0,3,0,left,80,1,1,1
420,63ed0ffba76a3fb9dfe6dbdb_thisExp_2023-05-28_10h46.07.233.csv,-1.0,1,start,1,1,0,1,1,2.19150827034011,1,0,3,1,right,59,0,1,0
421,63ed0ffba76a3fb9dfe6dbdb_thisExp_2023-05-28_10h46.07.233.csv,-0.9830508474576272,2,start,1,0,1,0,1,1.6361187910154313,1,1,3,1,right,59,0,1,0
422,63ed0ffba76a3fb9dfe6dbdb_thisExp_2023-05-28_10h46.07.233.csv,-0.9322033898305084,3,start,1,1,0,1,1,1.7661681195611458,1,1,3,1,right,59,1,1,0
423,63ed0ffba76a3fb9dfe6dbdb_thisExp_2023-05-28_10h46.07.233.csv,-0.847457627118644,4,start,1,1,1,1,1,2.044086347771144,1,1,3,1,right,59,1,1,1
424,63ed0ffba76a3fb9dfe6dbdb_thisExp_2023-05-28_10h46.07.233.csv,-0.8305084745762712,5,start,1,1,1,0,1,1.643259460909611,1,1,3,1,right,59,1,1,1
425,63ed0ffba76a3fb9dfe6dbdb_thisExp_2023-05-28_10h46.07.233.csv,-0.7966101694915254,6,start,1,1,1,1,1,1.9296065359201802,1,1,3,1,right,59,1,1,1
426,63ed0ffba76a3fb9dfe6dbdb_thisExp_2023-05-28_10h46.07.233.csv,-0.7627118644067796,7,start,1,1,1,1,1,0.5918893484857183,1,1,3,1,right,59,1,1,1
427,63ed0ffba76a3fb9dfe6dbdb_thisExp_2023-05-28_10h46.07.233.csv,-0.7457627118644068,8,start,1,1,1,0,1,1.0509265144355495,1,1,3,1,right,59,1,1,1
428,63ed0ffba76a3fb9dfe6dbdb_thisExp_2023-05-28_10h46.07.233.csv,-0.6949152542372882,9,start,1,1,1,1,1,1.0449653494373339,1,1,3,1,right,59,1,1,1
429,63ed0ffba76a3fb9dfe6dbdb_thisExp_2023-05-28_10h46.07.233.csv,-0.6440677966101694,10,start,1,1,1,1,1,0.9065231843151027,1,1,3,1,right,59,1,1,1
430,63ed0ffba76a3fb9dfe6dbdb_thisExp_2023-05-28_10h46.07.233.csv,-0.6271186440677966,11,start,1,1,1,0,1,0.4338581826093822,1,1,3,1,right,59,1,1,1
431,63ed0ffba76a3fb9dfe6dbdb_thisExp_2023-05-28_10h46.07.233.csv,-0.6101694915254238,12,start,1,1,1,0,1,0.4284000793906602,1,1,3,1,right,59,1,1,1
432,63ed0ffba76a3fb9dfe6dbdb_thisExp_2023-05-28_10h46.07.233.csv,-0.576271186440678,13,start,1,1,1,1,1,0.54609623784791,1,1,3,1,right,59,1,1,1
433,63ed0ffba76a3fb9dfe6dbdb_thisExp_2023-05-28_10h46.07.233.csv,-0.4915254237288136,14,start,1,1,1,1,1,1.4800123649936425,1,1,3,1,right,59,1,1,1
434,63ed0ffba76a3fb9dfe6dbdb_thisExp_2023-05-28_10h46.07.233.csv,-0.4745762711864407,15,start,1,1,1,0,1,1.0925271450121616,1,1,3,1,right,59,1,1,1
435,63ed0ffba76a3fb9dfe6dbdb_thisExp_2023-05-28_10h46.07.233.csv,-0.3898305084745763,16,start,1,1,1,1,1,0.3721151284266103,1,1,3,1,right,59,1,1,1
436,63ed0ffba76a3fb9dfe6dbdb_thisExp_2023-05-28_10h46.07.233.csv,-0.3728813559322034,17,start,1,1,1,0,1,0.336972111662864,1,1,3,1,right,59,1,1,1
437,63ed0ffba76a3fb9dfe6dbdb_thisExp_2023-05-28_10h46.07.233.csv,-0.1694915254237288,18,start,1,1,1,1,1,0.9815165167918625,1,1,3,1,right,59,1,1,1
438,63ed0ffba76a3fb9dfe6dbdb_thisExp_2023-05-28_10h46.07.233.csv,-0.13559322033898305,19,start,1,1,1,1,1,0.6442720127778087,1,1,3,1,right,59,1,1,1
439,63ed0ffba76a3fb9dfe6dbdb_thisExp_2023-05-28_10h46.07.233.csv,-0.05084745762711865,20,start,1,1,1,1,1,0.48845730790398234,1,1,3,1,right,59,1,1,1
440,63ed0ffba76a3fb9dfe6dbdb_thisExp_2023-05-28_10h46.07.233.csv,-1.0,1,images/toothbrush.png,2,1,1,1,1,2.5314323472249334,1,0,3,0,space,59,0,0,1
441,63ed0ffba76a3fb9dfe6dbdb_thisExp_2023-05-28_10h46.07.233.csv,-0.9830508474576272,2,images/toothbrush.png,2,0,1,0,1,1.2538195529704923,1,1,3,0,space,59,0,0,0
442,63ed0ffba76a3fb9dfe6dbdb_thisExp_2023-05-28_10h46.07.233.csv,-0.9322033898305084,3,images/toothbrush.png,2,1,0,1,1,1.5665930399417842,1,0,3,0,left,59,1,1,0
443,63ed0ffba76a3fb9dfe6dbdb_thisExp_2023-05-28_10h46.07.233.csv,-0.847457627118644,4,images/toothbrush.png,2,1,1,1,1,1.4563799686865784,1,1,3,0,left,59,1,1,1
444,63ed0ffba76a3fb9dfe6dbdb_thisExp_2023-05-28_10h46.07.233.csv,-0.8305084745762712,5,images/toothbrush.png,2,1,1,0,1,0.1246924439573183,1,1,3,0,left,59,1,1,1
445,63ed0ffba76a3fb9dfe6dbdb_thisExp_2023-05-28_10h46.07.233.csv,-0.7966101694915254,6,images/toothbrush.png,2,1,1,1,1,0.38825112737347645,1,1,3,0,left,59,1,1,1
446,63ed0ffba76a3fb9dfe6dbdb_thisExp_2023-05-28_10h46.07.233.csv,-0.7627118644067796,7,images/toothbrush.png,2,1,1,1,1,0.16415758616628337,1,1,3,0,left,59,1,1,1
447,63ed0ffba76a3fb9dfe6dbdb_thisExp_2023-05-28_10h46.07.233.csv,-0.7457627118644068,8,images/toothbrush.png,2,1,1,0,1,1.3941633194985859,1,1,3,0,left,59,1,1,1
448,63ed0ffba76a3fb9dfe6dbdb_thisExp_2023-05-28_10h46.07.233.csv,-0.6949152542372882,9,images/toothbrush.png,2,1,1,1,1,-0.17209403663851877,1,1,3,0,left,59,1,1,1
449,63ed0ffba76a3fb9dfe6dbdb_thisExp_2023-05-28_10h46.07.233.csv,-0.6440677966101694,10,images/toothbrush.png,2,1,1,1,1,0.767790723555711,1,1,3,0,left,59,1,1,1
450,63ed0ffba76a3fb9dfe6dbdb_thisExp_2023-05-28_10h46.07.233.csv,-0.6271186440677966,11,images/toothbrush.png,2,1,1,0,1,-0.984837274409265,1,1,3,0,left,59,1,1,1
451,63ed0ffba76a3fb9dfe6dbdb_thisExp_2023-05-28_10h46.07.233.csv,-0.6101694915254238,12,images/toothbrush.png,2,1,1,0,1,-0.8528465593176202,1,1,3,0,left,59,1,1,1
452,63ed0ffba76a3fb9dfe6dbdb_thisExp_2023-05-28_10h46.07.233.csv,-0.576271186440678,13,images/toothbrush.png,2,1,1,1,1,0.38560247901191264,1,1,3,0,left,59,1,1,1
453,63ed0ffba76a3fb9dfe6dbdb_thisExp_2023-05-28_10h46.07.233.csv,-0.4915254237288136,14,images/toothbrush.png,2,1,1,1,1,-0.9736550492637259,1,1,3,0,left,59,1,1,1
454,63ed0ffba76a3fb9dfe6dbdb_thisExp_2023-05-28_10h46.07.233.csv,-0.4745762711864407,15,images/toothbrush.png,2,1,1,0,1,-1.635268672468622,1,1,3,0,left,59,1,1,1
455,63ed0ffba76a3fb9dfe6dbdb_thisExp_2023-05-28_10h46.07.233.csv,-0.3898305084745763,16,images/toothbrush.png,2,1,1,1,1,-0.9584156581748261,1,1,3,0,left,59,1,1,1
456,63ed0ffba76a3fb9dfe6dbdb_thisExp_2023-05-28_10h46.07.233.csv,-0.3728813559322034,17,images/toothbrush.png,2,1,1,0,1,-0.8814063300206533,1,1,3,0,left,59,1,1,1
457,63ed0ffba76a3fb9dfe6dbdb_thisExp_2023-05-28_10h46.07.233.csv,-0.1694915254237288,18,images/toothbrush.png,2,1,1,1,1,0.24810929733195777,1,1,3,0,left,59,1,1,1
458,63ed0ffba76a3fb9dfe6dbdb_thisExp_2023-05-28_10h46.07.233.csv,-0.13559322033898305,19,images/toothbrush.png,2,1,1,1,1,0.27763173659827955,1,1,3,0,left,59,1,1,1
459,63ed0ffba76a3fb9dfe6dbdb_thisExp_2023-05-28_10h46.07.233.csv,-0.05084745762711865,20,images/toothbrush.png,2,1,1,1,1,-0.19019245117452388,1,1,3,0,left,59,1,1,1
460,63ed0ffba76a3fb9dfe6dbdb_thisExp_2023-05-28_10h46.07.233.csv,-1.0,1,images/car.png,3,1,1,1,1,1.47533492791062,0,0,3,0,left,59,0,1,1
461,63ed0ffba76a3fb9dfe6dbdb_thisExp_2023-05-28_10h46.07.233.csv,-0.9830508474576272,2,images/backpack.png,3,0,1,0,1,1.3182831505033468,0,0,3,0,space,59,0,0,0
462,63ed0ffba76a3fb9dfe6dbdb_thisExp_2023-05-28_10h46.07.233.csv,-0.9322033898305084,3,images/car.png,3,1,0,1,1,0.4736220747684465,0,0,3,0,left,59,1,1,0
463,63ed0ffba76a3fb9dfe6dbdb_thisExp_2023-05-28_10h46.07.233.csv,-0.847457627118644,4,images/car.png,3,1,1,1,1,-0.09244429039128002,0,1,3,0,left,59,1,1,1
464,63ed0ffba76a3fb9dfe6dbdb_thisExp_2023-05-28_10h46.07.233.csv,-0.8305084745762712,5,images/car.png,3,1,1,0,1,-0.3447463730734585,0,1,3,0,left,59,1,1,1
465,63ed0ffba76a3fb9dfe6dbdb_thisExp_2023-05-28_10h46.07.233.csv,-0.7966101694915254,6,images/car.png,3,1,1,1,1,-0.8200718741336122,0,0,3,0,left,59,1,1,1
466,63ed0ffba76a3fb9dfe6dbdb_thisExp_2023-05-28_10h46.07.233.csv,-0.7627118644067796,7,images/car.png,3,1,1,1,1,-0.6949488025065735,0,0,3,0,left,59,1,1,1
467,63ed0ffba76a3fb9dfe6dbdb_thisExp_2023-05-28_10h46.07.233.csv,-0.7457627118644068,8,images/car.png,3,1,1,0,1,-1.4196443408014447,0,0,3,0,left,59,1,1,1
468,63ed0ffba76a3fb9dfe6dbdb_thisExp_2023-05-28_10h46.07.233.csv,-0.6949152542372882,9,images/car.png,3,1,1,1,1,-1.5779392453747294,0,0,3,0,left,59,1,1,1
469,63ed0ffba76a3fb9dfe6dbdb_thisExp_2023-05-28_10h46.07.233.csv,-0.6440677966101694,10,images/car.png,3,1,1,1,1,-1.4275331091364882,0,0,3,0,left,59,1,1,1
470,63ed0ffba76a3fb9dfe6dbdb_thisExp_2023-05-28_10h46.07.233.csv,-0.6271186440677966,11,images/car.png,3,1,1,0,1,-1.612442421454399,0,0,3,0,left,59,1,1,1
471,63ed0ffba76a3fb9dfe6dbdb_thisExp_2023-05-28_10h46.07.233.csv,-0.6101694915254238,12,images/car.png,3,1,1,0,1,-0.8117055166840805,0,0,3,0,left,59,1,1,1
472,63ed0ffba76a3fb9dfe6dbdb_thisExp_2023-05-28_10h46.07.233.csv,-0.576271186440678,13,images/car.png,3,1,1,1,1,1.401995451345975,0,0,3,0,left,59,1,1,1
473,63ed0ffba76a3fb9dfe6dbdb_thisExp_2023-05-28_10h46.07.233.csv,-0.4915254237288136,14,images/car.png,3,1,1,1,1,-2.4534079827286295,0,0,3,0,left,59,1,1,1
474,63ed0ffba76a3fb9dfe6dbdb_thisExp_2023-05-28_10h46.07.233.csv,-0.4745762711864407,15,images/car.png,3,1,1,0,1,-2.290656522128772,0,0,3,0,left,59,1,1,1
475,63ed0ffba76a3fb9dfe6dbdb_thisExp_2023-05-28_10h46.07.233.csv,-0.3898305084745763,16,images/car.png,3,1,1,1,1,-1.4784096500276962,0,0,3,0,left,59,1,1,1
476,63ed0ffba76a3fb9dfe6dbdb_thisExp_2023-05-28_10h46.07.233.csv,-0.3728813559322034,17,images/car.png,3,1,1,0,1,-1.2570220254157516,0,0,3,0,left,59,1,1,1
477,63ed0ffba76a3fb9dfe6dbdb_thisExp_2023-05-28_10h46.07.233.csv,-0.1694915254237288,18,images/car.png,3,1,1,1,1,-1.519597208434311,0,0,3,0,left,59,1,1,1
478,63ed0ffba76a3fb9dfe6dbdb_thisExp_2023-05-28_10h46.07.233.csv,-0.13559322033898305,19,images/car.png,3,1,1,1,1,-1.974001029221839,0,1,3,0,left,59,1,1,1
479,63ed0ffba76a3fb9dfe6dbdb_thisExp_2023-05-28_10h46.07.233.csv,-0.05084745762711865,20,images/car.png,3,1,1,1,1,-1.443923473956527,0,0,3,0,left,59,1,1,1
480,5PARTICIPANT_thisExp_2023-05-28_10h06.51.297.csv,-0.9830508474576272,1,start,1,1,0,1,1,1.586292102926788,1,0,3,1,space,24,0,0,0
481,5PARTICIPANT_thisExp_2023-05-28_10h06.51.297.csv,-0.8983050847457628,2,start,1,0,1,1,1,0.8170448172161826,1,1,3,1,space,24,0,0,0
482,5PARTICIPANT_thisExp_2023-05-28_10h06.51.297.csv,-0.8813559322033898,3,start,1,1,0,0,1,1.3212490449167251,1,1,3,1,space,24,0,0,0
483,5PARTICIPANT_thisExp_2023-05-28_10h06.51.297.csv,-0.847457627118644,4,start,1,1,1,1,1,1.4360126658621446,1,0,3,1,right,24,1,1,0
484,5PARTICIPANT_thisExp_2023-05-28_10h06.51.297.csv,-0.7966101694915254,5,start,1,1,1,1,1,1.0420419371797154,1,1,3,1,right,24,1,1,1
485,5PARTICIPANT_thisExp_2023-05-28_10h06.51.297.csv,-0.7457627118644068,6,start,1,1,1,1,1,1.3874437003764122,1,1,3,1,right,24,1,1,1
486,5PARTICIPANT_thisExp_2023-05-28_10h06.51.297.csv,-0.6779661016949152,7,start,1,1,1,1,1,1.122589198049558,1,1,3,1,right,24,1,1,1
487,5PARTICIPANT_thisExp_2023-05-28_10h06.51.297.csv,-0.6440677966101694,8,start,1,1,1,1,1,0.16415758616628337,1,1,3,1,right,24,1,1,1
488,5PARTICIPANT_thisExp_2023-05-28_10h06.51.297.csv,-0.6271186440677966,9,start,1,1,1,0,1,0.6312717768418578,1,1,3,1,right,24,1,1,1
489,5PARTICIPANT_thisExp_2023-05-28_10h06.51.297.csv,-0.6101694915254238,10,start,1,1,1,0,1,0.14288748754854755,1,1,3,1,right,24,1,1,1
490,5PARTICIPANT_thisExp_2023-05-28_10h06.51.297.csv,-0.559322033898305,11,start,1,1,1,1,1,1.259142575459407,1,1,3,1,right,24,1,1,1
491,5PARTICIPANT_thisExp_2023-05-28_10h06.51.297.csv,-0.423728813559322,12,start,1,1,1,1,1,1.065227844648526,1,1,3,1,right,24,1,1,1
492,5PARTICIPANT_thisExp_2023-05-28_10h06.51.297.csv,-0.3898305084745763,13,start,1,0,1,1,1,-0.2041991353132719,1,0,3,1,space,24,0,0,1
493,5PARTICIPANT_thisExp_2023-05-28_10h06.51.297.csv,-0.2711864406779661,14,start,1,0,0,1,1,-0.44894688672012545,1,1,3,1,space,24,0,0,0
494,5PARTICIPANT_thisExp_2023-05-28_10h06.51.297.csv,-0.22033898305084745,15,start,1,1,0,1,1,0.7710799716163681,1,0,3,1,right,24,1,1,0
495,5PARTICIPANT_thisExp_2023-05-28_10h06.51.297.csv,-0.15254237288135594,16,start,1,0,1,1,1,0.3795317260816599,1,0,3,1,space,24,0,0,1
496,5PARTICIPANT_thisExp_2023-05-28_10h06.51.297.csv,-0.1016949152542373,17,start,1,1,0,1,1,0.2987703694372015,1,0,3,1,right,24,1,1,0
497,5PARTICIPANT_thisExp_2023-05-28_10h06.51.297.csv,-0.0847457627118644,18,start,1,1,1,0,1,0.517662201024979,1,1,3,1,right,24,1,1,1
498,5PARTICIPANT_thisExp_2023-05-28_10h06.51.297.csv,-0.05084745762711865,19,start,1,1,1,1,1,0.19737435942024714,1,1,3,1,right,24,1,1,1
499,5PARTICIPANT_thisExp_2023-05-28_10h06.51.297.csv,0.0,20,start,1,1,1,1,1,0.43599431314298726,1,1,3,1,right,24,1,1,1
500,5PARTICIPANT_thisExp_2023-05-28_10h06.51.297.csv,-0.9830508474576272,1,images/toothbrush.png,2,1,1,1,1,1.5776582458980744,1,0,3,0,left,24,0,1,1
501,5PARTICIPANT_thisExp_2023-05-28_10h06.51.297.csv,-0.8983050847457628,2,images/baby.png,2,0,1,1,1,2.317493409727164,0,0,3,0,left,24,0,1,0
502,5PARTICIPANT_thisExp_2023-05-28_10h06.51.297.csv,-0.8813559322033898,3,images/toothbrush.png,2,1,0,0,1,0.7583729654776526,1,1,3,0,left,24,0,1,0
503,5PARTICIPANT_thisExp_2023-05-28_10h06.51.297.csv,-0.847457627118644,4,images/toothbrush.png,2,1,1,1,1,0.03613904661587314,1,1,3,0,left,24,1,1,0
504,5PARTICIPANT_thisExp_2023-05-28_10h06.51.297.csv,-0.7966101694915254,5,images/toothbrush.png,2,1,1,1,1,-0.040821994520255166,1,1,3,0,left,24,1,1,1
505,5PARTICIPANT_thisExp_2023-05-28_10h06.51.297.csv,-0.7457627118644068,6,images/toothbrush.png,2,1,1,1,1,-0.5812480880625365,1,1,3,0,left,24,1,1,1
506,5PARTICIPANT_thisExp_2023-05-28_10h06.51.297.csv,-0.6779661016949152,7,images/toothbrush.png,2,1,1,1,1,-0.981896488972149,1,1,3,0,left,24,1,1,1
507,5PARTICIPANT_thisExp_2023-05-28_10h06.51.297.csv,-0.6440677966101694,8,images/toothbrush.png,2,1,1,1,1,-0.9398152769211122,1,1,3,0,left,24,1,1,1
508,5PARTICIPANT_thisExp_2023-05-28_10h06.51.297.csv,-0.6271186440677966,9,images/toothbrush.png,2,1,1,0,1,-1.0230411018210357,1,1,3,0,left,24,1,1,1
509,5PARTICIPANT_thisExp_2023-05-28_10h06.51.297.csv,-0.6101694915254238,10,images/toothbrush.png,2,1,1,0,1,-0.8756287501552654,1,1,3,0,left,24,1,1,1
510,5PARTICIPANT_thisExp_2023-05-28_10h06.51.297.csv,-0.559322033898305,11,images/toothbrush.png,2,1,1,1,1,-0.06913573883486211,1,1,3,0,left,24,1,1,1
511,5PARTICIPANT_thisExp_2023-05-28_10h06.51.297.csv,-0.423728813559322,12,images/toothbrush.png,2,1,1,1,1,-0.8677386912919894,1,1,3,0,left,24,1,1,1
512,5PARTICIPANT_thisExp_2023-05-28_10h06.51.297.csv,-0.3898305084745763,13,images/toothbrush.png,2,0,1,1,1,-0.26905660832861605,1,0,3,0,right,24,0,1,1
513,5PARTICIPANT_thisExp_2023-05-28_10h06.51.297.csv,-0.2711864406779661,14,images/baby.png,2,0,0,1,1,1.1155349558640175,0,1,3,0,left,24,0,1,0
514,5PARTICIPANT_thisExp_2023-05-28_10h06.51.297.csv,-0.22033898305084745,15,images/toothbrush.png,2,1,0,1,1,-0.31965445169505347,1,0,3,0,left,24,1,1,0
515,5PARTICIPANT_thisExp_2023-05-28_10h06.51.297.csv,-0.15254237288135594,16,images/baby.png,2,0,1,1,1,0.5238405608434853,0,1,3,0,left,24,0,1,1
516,5PARTICIPANT_thisExp_2023-05-28_10h06.51.297.csv,-0.1016949152542373,17,images/toothbrush.png,2,1,0,1,1,-0.30679693631146304,1,1,3,0,left,24,1,1,0
517,5PARTICIPANT_thisExp_2023-05-28_10h06.51.297.csv,-0.0847457627118644,18,images/toothbrush.png,2,1,1,0,1,-0.27272778066997017,1,1,3,0,left,24,1,1,1
518,5PARTICIPANT_thisExp_2023-05-28_10h06.51.297.csv,-0.05084745762711865,19,images/toothbrush.png,2,1,1,1,1,-0.6329932577401982,1,1,3,0,left,24,1,1,1
519,5PARTICIPANT_thisExp_2023-05-28_10h06.51.297.csv,0.0,20,images/toothbrush.png,2,1,1,1,1,-0.7348028558287778,1,1,3,0,left,24,1,1,1
520,5PARTICIPANT_thisExp_2023-05-28_10h06.51.297.csv,-0.9830508474576272,1,images/car.png,3,1,1,1,1,-0.022347863663907622,0,0,3,0,left,24,0,1,1
521,5PARTICIPANT_thisExp_2023-05-28_10h06.51.297.csv,-0.8983050847457628,2,images/backpack.png,3,0,1,1,1,0.8808707866428946,0,0,3,0,right,24,0,1,0
522,5PARTICIPANT_thisExp_2023-05-28_10h06.51.297.csv,-0.8813559322033898,3,images/car.png,3,1,0,0,1,-1.1838434330307703,0,0,3,0,left,24,0,1,0
523,5PARTICIPANT_thisExp_2023-05-28_10h06.51.297.csv,-0.847457627118644,4,images/car.png,3,1,1,1,1,-1.0111510128981152,0,0,3,0,left,24,1,1,0
524,5PARTICIPANT_thisExp_2023-05-28_10h06.51.297.csv,-0.7966101694915254,5,images/car.png,3,1,1,1,1,-0.966794864047923,0,0,3,0,left,24,1,1,1
525,5PARTICIPANT_thisExp_2023-05-28_10h06.51.297.csv,-0.7457627118644068,6,images/car.png,3,1,1,1,1,-1.2427136326423665,0,0,3,0,left,24,1,1,1
526,5PARTICIPANT_thisExp_2023-05-28_10h06.51.297.csv,-0.6779661016949152,7,images/car.png,3,1,1,1,1,-1.4007990473227723,0,0,3,0,left,24,1,1,1
527,5PARTICIPANT_thisExp_2023-05-28_10h06.51.297.csv,-0.6440677966101694,8,images/car.png,3,1,1,1,1,-1.3363619923716816,0,0,3,0,left,24,1,1,1
528,5PARTICIPANT_thisExp_2023-05-28_10h06.51.297.csv,-0.6271186440677966,9,images/car.png,3,1,1,0,1,-1.4044583317475619,0,0,3,0,left,24,1,1,1
529,5PARTICIPANT_thisExp_2023-05-28_10h06.51.297.csv,-0.6101694915254238,10,images/car.png,3,1,1,0,1,-1.3067440823618817,0,0,3,0,left,24,1,1,1
530,5PARTICIPANT_thisExp_2023-05-28_10h06.51.297.csv,-0.559322033898305,11,images/car.png,3,1,1,1,1,-0.7872381039595407,0,1,3,0,left,24,1,1,1
531,5PARTICIPANT_thisExp_2023-05-28_10h06.51.297.csv,-0.423728813559322,12,images/car.png,3,1,1,1,1,-1.2708251113137765,0,0,3,0,left,24,1,1,1
532,5PARTICIPANT_thisExp_2023-05-28_10h06.51.297.csv,-0.3898305084745763,13,images/backpack.png,3,0,1,1,1,0.5948174464867363,0,0,3,0,left,24,0,1,1
533,5PARTICIPANT_thisExp_2023-05-28_10h06.51.297.csv,-0.2711864406779661,14,images/backpack.png,3,0,0,1,1,0.38879357382019236,0,0,3,0,left,24,0,1,0
534,5PARTICIPANT_thisExp_2023-05-28_10h06.51.297.csv,-0.22033898305084745,15,images/car.png,3,1,0,1,1,-1.07734015339257,0,0,3,0,left,24,1,1,0
535,5PARTICIPANT_thisExp_2023-05-28_10h06.51.297.csv,-0.15254237288135594,16,images/backpack.png,3,0,1,1,1,-1.0624732420522365,0,0,3,0,left,24,0,1,1
536,5PARTICIPANT_thisExp_2023-05-28_10h06.51.297.csv,-0.1016949152542373,17,images/car.png,3,1,0,1,1,-1.1523295711740975,0,1,3,0,left,24,1,1,0
537,5PARTICIPANT_thisExp_2023-05-28_10h06.51.297.csv,-0.0847457627118644,18,images/car.png,3,1,1,0,1,-1.1223928173335131,0,1,3,0,left,24,1,1,1
538,5PARTICIPANT_thisExp_2023-05-28_10h06.51.297.csv,-0.05084745762711865,19,images/car.png,3,1,1,1,1,-1.2949922027131047,0,1,3,0,left,24,1,1,1
539,5PARTICIPANT_thisExp_2023-05-28_10h06.51.297.csv,0.0,20,images/car.png,3,1,1,1,1,-1.1159619270032226,0,1,3,0,left,24,1,1,1
540,57d5ab3a722df500017f3622_thisExp_2023-05-29_12h45.35.008.csv,-0.9661016949152542,1,start,1,1,0,1,1,1.2529629484980342,1,0,3,1,right,24,1,1,0
541,57d5ab3a722df500017f3622_thisExp_2023-05-29_12h45.35.008.csv,-0.9491525423728814,2,start,1,1,1,0,1,1.2046525732306932,1,1,3,1,right,24,1,1,1
542,57d5ab3a722df500017f3622_thisExp_2023-05-29_12h45.35.008.csv,-0.9322033898305084,3,start,1,1,1,0,1,1.6806230458246225,1,1,3,1,right,24,1,1,1
543,57d5ab3a722df500017f3622_thisExp_2023-05-29_12h45.35.008.csv,-0.9152542372881356,4,start,1,1,1,0,1,2.1170142630248825,1,1,3,1,right,24,1,1,1
544,57d5ab3a722df500017f3622_thisExp_2023-05-29_12h45.35.008.csv,-0.847457627118644,5,start,1,1,1,1,1,1.9880661105886723,1,1,3,1,right,24,1,1,1
545,57d5ab3a722df500017f3622_thisExp_2023-05-29_12h45.35.008.csv,-0.8135593220338984,6,start,1,1,1,1,1,1.9325933006929072,1,1,3,1,right,24,1,1,1
546,57d5ab3a722df500017f3622_thisExp_2023-05-29_12h45.35.008.csv,-0.7966101694915254,7,start,1,1,1,0,1,2.441625035659696,1,1,3,1,right,24,1,1,1
547,57d5ab3a722df500017f3622_thisExp_2023-05-29_12h45.35.008.csv,-0.7457627118644068,8,start,1,1,1,1,1,1.9801321255799453,1,1,3,1,right,24,1,1,1
548,57d5ab3a722df500017f3622_thisExp_2023-05-29_12h45.35.008.csv,-0.711864406779661,9,start,1,1,1,1,1,1.2140518397676003,1,1,3,1,right,24,1,1,1
549,57d5ab3a722df500017f3622_thisExp_2023-05-29_12h45.35.008.csv,-0.6949152542372882,10,start,1,1,1,0,1,1.4081781546198948,1,1,3,1,right,24,1,1,1
550,57d5ab3a722df500017f3622_thisExp_2023-05-29_12h45.35.008.csv,-0.6440677966101694,11,start,1,1,1,1,1,1.4236864803369533,1,1,3,1,right,24,1,1,1
551,57d5ab3a722df500017f3622_thisExp_2023-05-29_12h45.35.008.csv,-0.6271186440677966,12,start,1,1,1,0,1,-0.11115504936616247,1,1,3,1,right,24,1,1,1
552,57d5ab3a722df500017f3622_thisExp_2023-05-29_12h45.35.008.csv,-0.5423728813559322,13,start,1,0,1,1,1,1.5633520882387462,1,0,3,1,left,24,1,1,1
553,57d5ab3a722df500017f3622_thisExp_2023-05-29_12h45.35.008.csv,-0.5254237288135594,14,start,1,1,0,0,1,0.531157522737909,1,0,3,1,right,24,1,1,1
554,57d5ab3a722df500017f3622_thisExp_2023-05-29_12h45.35.008.csv,-0.288135593220339,15,start,1,1,1,1,1,0.9098701640712323,1,1,3,1,right,24,1,1,1
555,57d5ab3a722df500017f3622_thisExp_2023-05-29_12h45.35.008.csv,-0.13559322033898305,16,start,1,1,1,1,1,1.377959724329833,1,1,3,1,right,24,1,1,1
556,57d5ab3a722df500017f3622_thisExp_2023-05-29_12h45.35.008.csv,-0.1016949152542373,17,start,1,0,1,1,1,1.2619775266125102,1,0,3,1,space,24,0,0,1
557,57d5ab3a722df500017f3622_thisExp_2023-05-29_12h45.35.008.csv,-0.0847457627118644,18,start,1,1,0,0,1,0.5769503861574338,1,0,3,1,right,24,1,1,0
558,57d5ab3a722df500017f3622_thisExp_2023-05-29_12h45.35.008.csv,-0.06779661016949153,19,start,1,1,1,0,1,1.2671166032905603,1,1,3,1,right,24,1,1,1
559,57d5ab3a722df500017f3622_thisExp_2023-05-29_12h45.35.008.csv,0.0,20,start,1,1,1,1,1,0.3525564746749843,1,1,3,1,right,24,1,1,1
560,57d5ab3a722df500017f3622_thisExp_2023-05-29_12h45.35.008.csv,-0.9661016949152542,1,images/toothbrush.png,2,1,1,1,1,1.357663378320738,1,0,3,0,left,24,1,1,1
561,57d5ab3a722df500017f3622_thisExp_2023-05-29_12h45.35.008.csv,-0.9491525423728814,2,images/toothbrush.png,2,1,1,0,1,0.8773003921828699,1,1,3,0,left,24,1,1,1
562,57d5ab3a722df500017f3622_thisExp_2023-05-29_12h45.35.008.csv,-0.9322033898305084,3,images/toothbrush.png,2,1,1,0,1,1.1996936618410472,1,1,3,0,left,24,1,1,1
563,57d5ab3a722df500017f3622_thisExp_2023-05-29_12h45.35.008.csv,-0.9152542372881356,4,images/toothbrush.png,2,1,1,0,1,0.288181947493432,1,1,3,0,left,24,1,1,1
564,57d5ab3a722df500017f3622_thisExp_2023-05-29_12h45.35.008.csv,-0.847457627118644,5,images/toothbrush.png,2,1,1,1,1,0.4347002333764993,1,1,3,0,left,24,1,1,1
565,57d5ab3a722df500017f3622_thisExp_2023-05-29_12h45.35.008.csv,-0.8135593220338984,6,images/toothbrush.png,2,1,1,1,1,-0.05087233037375655,1,1,3,0,left,24,1,1,1
566,57d5ab3a722df500017f3622_thisExp_2023-05-29_12h45.35.008.csv,-0.7966101694915254,7,images/toothbrush.png,2,1,1,0,1,-0.015418252728380644,1,1,3,0,left,24,1,1,1
567,57d5ab3a722df500017f3622_thisExp_2023-05-29_12h45.35.008.csv,-0.7457627118644068,8,images/toothbrush.png,2,1,1,1,1,1.9125010869241836,1,1,3,0,left,24,1,1,1
568,57d5ab3a722df500017f3622_thisExp_2023-05-29_12h45.35.008.csv,-0.711864406779661,9,images/toothbrush.png,2,1,1,1,1,-0.2217694957610659,1,1,3,0,left,24,1,1,1
569,57d5ab3a722df500017f3622_thisExp_2023-05-29_12h45.35.008.csv,-0.6949152542372882,10,images/toothbrush.png,2,1,1,0,1,1.3696058798336552,1,1,3,0,left,24,1,1,1
570,57d5ab3a722df500017f3622_thisExp_2023-05-29_12h45.35.008.csv,-0.6440677966101694,11,images/toothbrush.png,2,1,1,1,1,-1.3205066205818874,1,1,3,0,left,24,1,1,1
571,57d5ab3a722df500017f3622_thisExp_2023-05-29_12h45.35.008.csv,-0.6271186440677966,12,images/toothbrush.png,2,1,1,0,1,-1.0322629081265757,1,1,3,0,left,24,1,1,1
572,57d5ab3a722df500017f3622_thisExp_2023-05-29_12h45.35.008.csv,-0.5423728813559322,13,images/baby.png,2,0,1,1,1,-0.6917481596462379,0,0,3,0,left,24,1,1,1
573,57d5ab3a722df500017f3622_thisExp_2023-05-29_12h45.35.008.csv,-0.5254237288135594,14,images/toothbrush.png,2,1,0,0,1,-0.9215545615492542,1,1,3,0,left,24,1,1,1
574,57d5ab3a722df500017f3622_thisExp_2023-05-29_12h45.35.008.csv,-0.288135593220339,15,images/toothbrush.png,2,1,1,1,1,-0.4309367740818338,1,1,3,0,left,24,1,1,1
575,57d5ab3a722df500017f3622_thisExp_2023-05-29_12h45.35.008.csv,-0.13559322033898305,16,images/toothbrush.png,2,1,1,1,1,-0.6933472005626123,1,1,3,0,left,24,1,1,1
576,57d5ab3a722df500017f3622_thisExp_2023-05-29_12h45.35.008.csv,-0.1016949152542373,17,images/toothbrush.png,2,0,1,1,1,-0.8739498913846301,1,0,3,0,space,24,0,0,1
577,57d5ab3a722df500017f3622_thisExp_2023-05-29_12h45.35.008.csv,-0.0847457627118644,18,images/toothbrush.png,2,1,0,0,1,-0.5250935955636955,1,0,3,0,left,24,1,1,0
578,57d5ab3a722df500017f3622_thisExp_2023-05-29_12h45.35.008.csv,-0.06779661016949153,19,images/toothbrush.png,2,1,1,0,1,0.06503839617922215,1,1,3,0,left,24,1,1,1
579,57d5ab3a722df500017f3622_thisExp_2023-05-29_12h45.35.008.csv,0.0,20,images/toothbrush.png,2,1,1,1,1,-0.9160407631189477,1,1,3,0,left,24,1,1,1
580,57d5ab3a722df500017f3622_thisExp_2023-05-29_12h45.35.008.csv,-0.9661016949152542,1,images/car.png,3,1,1,1,1,-1.037046933009955,0,0,3,0,left,24,1,1,1
581,57d5ab3a722df500017f3622_thisExp_2023-05-29_12h45.35.008.csv,-0.9491525423728814,2,images/car.png,3,1,1,0,1,-0.9132952228943566,0,1,3,0,left,24,1,1,1
582,57d5ab3a722df500017f3622_thisExp_2023-05-29_12h45.35.008.csv,-0.9322033898305084,3,images/car.png,3,1,1,0,1,-1.0461147197103557,0,1,3,0,left,24,1,1,1
583,57d5ab3a722df500017f3622_thisExp_2023-05-29_12h45.35.008.csv,-0.9152542372881356,4,images/car.png,3,1,1,0,1,-0.730226188801366,0,1,3,0,left,24,1,1,1
584,57d5ab3a722df500017f3622_thisExp_2023-05-29_12h45.35.008.csv,-0.847457627118644,5,images/car.png,3,1,1,1,1,-1.3420861064555702,0,0,3,0,left,24,1,1,1
585,57d5ab3a722df500017f3622_thisExp_2023-05-29_12h45.35.008.csv,-0.8135593220338984,6,images/car.png,3,1,1,1,1,-0.43001398102957716,0,0,3,0,left,24,1,1,1
586,57d5ab3a722df500017f3622_thisExp_2023-05-29_12h45.35.008.csv,-0.7966101694915254,7,images/car.png,3,1,1,0,1,-1.6079390363103645,0,0,3,0,left,24,1,1,1
587,57d5ab3a722df500017f3622_thisExp_2023-05-29_12h45.35.008.csv,-0.7457627118644068,8,images/car.png,3,1,1,1,1,-1.2026403590921573,0,0,3,0,left,24,1,1,1
588,57d5ab3a722df500017f3622_thisExp_2023-05-29_12h45.35.008.csv,-0.711864406779661,9,images/car.png,3,1,1,1,1,-1.5635089805457005,0,0,3,0,left,24,1,1,1
589,57d5ab3a722df500017f3622_thisExp_2023-05-29_12h45.35.008.csv,-0.6949152542372882,10,images/car.png,3,1,1,0,1,-1.6089380373924493,0,0,3,0,left,24,1,1,1
590,57d5ab3a722df500017f3622_thisExp_2023-05-29_12h45.35.008.csv,-0.6440677966101694,11,images/car.png,3,1,1,1,1,-1.8924641733496872,0,0,3,0,left,24,1,1,1
591,57d5ab3a722df500017f3622_thisExp_2023-05-29_12h45.35.008.csv,-0.6271186440677966,12,images/car.png,3,1,1,0,1,-1.8951219822232084,0,0,3,0,left,24,1,1,1
592,57d5ab3a722df500017f3622_thisExp_2023-05-29_12h45.35.008.csv,-0.5423728813559322,13,images/backpack.png,3,0,1,1,1,-1.1301029557594804,0,0,3,0,right,24,1,1,1
593,57d5ab3a722df500017f3622_thisExp_2023-05-29_12h45.35.008.csv,-0.5254237288135594,14,images/car.png,3,1,0,0,1,-1.7579379207525443,0,0,3,0,left,24,1,1,1
594,57d5ab3a722df500017f3622_thisExp_2023-05-29_12h45.35.008.csv,-0.288135593220339,15,images/car.png,3,1,1,1,1,-0.32531471392533584,0,0,3,0,left,24,1,1,1
595,57d5ab3a722df500017f3622_thisExp_2023-05-29_12h45.35.008.csv,-0.13559322033898305,16,images/car.png,3,1,1,1,1,-1.2594855142561947,0,1,3,0,left,24,1,1,1
596,57d5ab3a722df500017f3622_thisExp_2023-05-29_12h45.35.008.csv,-0.1016949152542373,17,images/backpack.png,3,0,1,1,1,-0.201749054460053,0,0,3,0,space,24,0,0,1
597,57d5ab3a722df500017f3622_thisExp_2023-05-29_12h45.35.008.csv,-0.0847457627118644,18,images/car.png,3,1,0,0,1,-1.9987836386623814,0,1,3,0,left,24,1,1,0
598,57d5ab3a722df500017f3622_thisExp_2023-05-29_12h45.35.008.csv,-0.06779661016949153,19,images/car.png,3,1,1,0,1,-1.695540611487512,0,1,3,0,left,24,1,1,1
599,57d5ab3a722df500017f3622_thisExp_2023-05-29_12h45.35.008.csv,0.0,20,images/car.png,3,1,1,1,1,-1.9696906777207166,0,1,3,0,left,24,1,1,1
600,5PARTICIPANT_thisExp_2023-05-29_10h22.54.035.csv,-1.0,1,start,1,0,0,1,1,2.3797868458975127,1,0,3,1,space,58,0,0,0
601,5PARTICIPANT_thisExp_2023-05-29_10h22.54.035.csv,-0.9830508474576272,2,start,1,0,0,0,1,1.419342215166091,1,1,3,1,space,58,0,0,0
602,5PARTICIPANT_thisExp_2023-05-29_10h22.54.035.csv,-0.9491525423728814,3,start,1,0,0,1,1,0.9497641919316938,1,1,3,1,space,58,0,0,0
603,5PARTICIPANT_thisExp_2023-05-29_10h22.54.035.csv,-0.9322033898305084,4,start,1,0,0,0,1,1.324418957401803,1,1,3,1,space,58,0,0,0
604,5PARTICIPANT_thisExp_2023-05-29_10h22.54.035.csv,-0.847457627118644,5,start,1,0,0,1,1,0.46649748991644796,1,1,3,1,space,58,0,0,0
605,5PARTICIPANT_thisExp_2023-05-29_10h22.54.035.csv,-0.7457627118644068,6,start,1,0,0,1,1,-0.6903510932579441,1,1,3,1,space,58,0,0,0
606,5PARTICIPANT_thisExp_2023-05-29_10h22.54.035.csv,-0.7288135593220338,7,start,1,0,0,0,1,0.640537230287648,1,1,3,1,space,58,0,0,0
607,5PARTICIPANT_thisExp_2023-05-29_10h22.54.035.csv,-0.711864406779661,8,start,1,0,0,0,1,0.4348944521321676,1,1,3,1,space,58,0,0,0
608,5PARTICIPANT_thisExp_2023-05-29_10h22.54.035.csv,-0.6271186440677966,9,start,1,1,0,1,1,0.0820407103362094,1,1,3,1,space,58,0,0,0
609,5PARTICIPANT_thisExp_2023-05-29_10h22.54.035.csv,-0.576271186440678,10,start,1,0,1,1,1,0.03777736433402992,1,1,3,1,space,58,0,0,0
610,5PARTICIPANT_thisExp_2023-05-29_10h22.54.035.csv,-0.5423728813559322,11,start,1,0,0,1,1,-0.11642146301725123,1,1,3,1,space,58,0,0,0
611,5PARTICIPANT_thisExp_2023-05-29_10h22.54.035.csv,-0.5254237288135594,12,start,1,0,0,0,1,0.08461684571987896,1,1,3,1,space,58,0,0,0
612,5PARTICIPANT_thisExp_2023-05-29_10h22.54.035.csv,-0.5084745762711864,13,start,1,0,0,0,1,0.16627685962509892,1,1,3,1,space,58,0,0,0
613,5PARTICIPANT_thisExp_2023-05-29_10h22.54.035.csv,-0.4406779661016949,14,start,1,0,0,1,1,-1.065661188528424,1,1,3,1,space,58,0,0,0
614,5PARTICIPANT_thisExp_2023-05-29_10h22.54.035.csv,-0.423728813559322,15,start,1,0,0,0,1,-0.6698213552564486,1,1,3,1,space,58,0,0,0
615,5PARTICIPANT_thisExp_2023-05-29_10h22.54.035.csv,-0.3728813559322034,16,start,1,1,0,1,1,-0.519530064396137,1,1,3,1,space,58,0,0,0
616,5PARTICIPANT_thisExp_2023-05-29_10h22.54.035.csv,-0.3559322033898305,17,start,1,0,1,0,1,0.1408917386974817,1,1,3,1,space,58,0,0,0
617,5PARTICIPANT_thisExp_2023-05-29_10h22.54.035.csv,-0.23728813559322035,18,start,1,0,0,1,1,-0.4453500418070794,1,1,3,1,space,58,0,0,0
618,5PARTICIPANT_thisExp_2023-05-29_10h22.54.035.csv,-0.22033898305084745,19,start,1,0,0,0,1,-0.8384041932170838,1,1,3,1,space,58,0,0,0
619,5PARTICIPANT_thisExp_2023-05-29_10h22.54.035.csv,-0.11864406779661017,20,start,1,0,0,1,1,-0.7859205807123002,1,1,3,1,space,58,0,0,0
620,5PARTICIPANT_thisExp_2023-05-29_10h22.54.035.csv,-1.0,1,images/toothbrush.png,2,0,0,1,1,1.1294001088204275,1,0,3,0,space,58,0,0,0
621,5PARTICIPANT_thisExp_2023-05-29_10h22.54.035.csv,-0.9830508474576272,2,images/toothbrush.png,2,0,0,0,1,1.2792657883613672,1,1,3,0,space,58,0,0,0
622,5PARTICIPANT_thisExp_2023-05-29_10h22.54.035.csv,-0.9491525423728814,3,images/baby.png,2,0,0,1,1,0.4688779959582254,0,0,3,0,space,58,0,0,0
623,5PARTICIPANT_thisExp_2023-05-29_10h22.54.035.csv,-0.9322033898305084,4,images/toothbrush.png,2,0,0,0,1,0.2979541337223852,1,1,3,0,space,58,0,0,0
624,5PARTICIPANT_thisExp_2023-05-29_10h22.54.035.csv,-0.847457627118644,5,images/baby.png,2,0,0,1,1,-0.001200720576518877,0,1,3,0,space,58,0,0,0
625,5PARTICIPANT_thisExp_2023-05-29_10h22.54.035.csv,-0.7457627118644068,6,images/toothbrush.png,2,0,0,1,1,0.4046647879373952,1,1,3,0,space,58,0,0,0
626,5PARTICIPANT_thisExp_2023-05-29_10h22.54.035.csv,-0.7288135593220338,7,images/baby.png,2,0,0,0,1,0.01400151963581361,0,1,3,0,space,58,0,0,0
627,5PARTICIPANT_thisExp_2023-05-29_10h22.54.035.csv,-0.711864406779661,8,images/toothbrush.png,2,0,0,0,1,0.3520643313810491,1,0,3,0,right,58,0,1,0
628,5PARTICIPANT_thisExp_2023-05-29_10h22.54.035.csv,-0.6271186440677966,9,images/toothbrush.png,2,1,0,1,1,0.311227686026795,1,0,3,0,space,58,0,0,0
629,5PARTICIPANT_thisExp_2023-05-29_10h22.54.035.csv,-0.576271186440678,10,images/toothbrush.png,2,0,1,1,1,0.28773207120182254,1,1,3,0,space,58,0,0,0
630,5PARTICIPANT_thisExp_2023-05-29_10h22.54.035.csv,-0.5423728813559322,11,images/baby.png,2,0,0,1,1,0.22880748093864842,0,1,3,0,space,58,0,0,0
631,5PARTICIPANT_thisExp_2023-05-29_10h22.54.035.csv,-0.5254237288135594,12,images/toothbrush.png,2,0,0,0,1,0.49907687673144263,1,1,3,0,space,58,0,0,0
632,5PARTICIPANT_thisExp_2023-05-29_10h22.54.035.csv,-0.5084745762711864,13,images/baby.png,2,0,0,0,1,-0.05975000440577405,0,1,3,0,space,58,0,0,0
633,5PARTICIPANT_thisExp_2023-05-29_10h22.54.035.csv,-0.4406779661016949,14,images/baby.png,2,0,0,1,1,0.0055843782939006634,0,1,3,0,space,58,0,0,0
634,5PARTICIPANT_thisExp_2023-05-29_10h22.54.035.csv,-0.423728813559322,15,images/toothbrush.png,2,0,0,0,1,-0.13250334981309375,1,1,3,0,space,58,0,0,0
635,5PARTICIPANT_thisExp_2023-05-29_10h22.54.035.csv,-0.3728813559322034,16,images/toothbrush.png,2,1,0,1,1,-0.18813844211551944,1,1,3,0,space,58,0,0,0
636,5PARTICIPANT_thisExp_2023-05-29_10h22.54.035.csv,-0.3559322033898305,17,images/toothbrush.png,2,0,1,0,1,0.19474407679251185,1,1,3,0,space,58,0,0,0
637,5PARTICIPANT_thisExp_2023-05-29_10h22.54.035.csv,-0.23728813559322035,18,images/baby.png,2,0,0,1,1,0.4184471423313335,0,1,3,0,space,58,0,0,0
638,5PARTICIPANT_thisExp_2023-05-29_10h22.54.035.csv,-0.22033898305084745,19,images/baby.png,2,0,0,0,1,-0.0570995920405728,0,1,3,0,space,58,0,0,0
639,5PARTICIPANT_thisExp_2023-05-29_10h22.54.035.csv,-0.11864406779661017,20,images/baby.png,2,0,0,1,1,0.3937973032404823,0,1,3,0,space,58,0,0,0
640,5PARTICIPANT_thisExp_2023-05-29_10h22.54.035.csv,-1.0,1,images/backpack.png,3,0,0,1,1,0.8444509546511105,0,0,3,0,space,58,0,0,0
641,5PARTICIPANT_thisExp_2023-05-29_10h22.54.035.csv,-0.9830508474576272,2,images/backpack.png,3,0,0,0,1,0.874509944525588,0,1,3,0,space,58,0,0,0
642,5PARTICIPANT_thisExp_2023-05-29_10h22.54.035.csv,-0.9491525423728814,3,images/bowtie.png,3,0,0,1,1,0.3201976641284608,0,0,3,0,space,58,0,0,0
643,5PARTICIPANT_thisExp_2023-05-29_10h22.54.035.csv,-0.9322033898305084,4,images/car.png,3,0,0,0,1,-0.11395288007603133,0,0,3,0,right,58,0,1,0
644,5PARTICIPANT_thisExp_2023-05-29_10h22.54.035.csv,-0.847457627118644,5,images/backpack.png,3,0,0,1,1,0.142367241286922,0,0,3,0,space,58,0,0,0
645,5PARTICIPANT_thisExp_2023-05-29_10h22.54.035.csv,-0.7457627118644068,6,images/car.png,3,0,0,1,1,-0.6016624904377669,0,1,3,0,right,58,0,1,0
646,5PARTICIPANT_thisExp_2023-05-29_10h22.54.035.csv,-0.7288135593220338,7,images/bowtie.png,3,0,0,0,1,0.2558043335537582,0,0,3,0,space,58,0,0,0
647,5PARTICIPANT_thisExp_2023-05-29_10h22.54.035.csv,-0.711864406779661,8,images/backpack.png,3,0,0,0,1,0.13984889511639856,0,0,3,0,space,58,0,0,0
648,5PARTICIPANT_thisExp_2023-05-29_10h22.54.035.csv,-0.6271186440677966,9,images/car.png,3,1,0,1,1,0.6608822199726699,0,1,3,0,space,58,0,0,0
649,5PARTICIPANT_thisExp_2023-05-29_10h22.54.035.csv,-0.576271186440678,10,images/backpack.png,3,0,1,1,1,0.29296807688101834,0,0,3,0,space,58,0,0,0
650,5PARTICIPANT_thisExp_2023-05-29_10h22.54.035.csv,-0.5423728813559322,11,images/bowtie.png,3,0,0,1,1,0.5707535323458787,0,0,3,0,space,58,0,0,0
651,5PARTICIPANT_thisExp_2023-05-29_10h22.54.035.csv,-0.5254237288135594,12,images/backpack.png,3,0,0,0,1,0.5444731431782086,0,0,3,0,space,58,0,0,0
652,5PARTICIPANT_thisExp_2023-05-29_10h22.54.035.csv,-0.5084745762711864,13,images/bowtie.png,3,0,0,0,1,0.27588779256906953,0,0,3,0,space,58,0,0,0
653,5PARTICIPANT_thisExp_2023-05-29_10h22.54.035.csv,-0.4406779661016949,14,images/backpack.png,3,0,0,1,1,0.062880898039201,0,0,3,0,space,58,0,0,0
654,5PARTICIPANT_thisExp_2023-05-29_10h22.54.035.csv,-0.423728813559322,15,images/backpack.png,3,0,0,0,1,0.16568391564093127,0,0,3,0,space,58,0,0,0
655,5PARTICIPANT_thisExp_2023-05-29_10h22.54.035.csv,-0.3728813559322034,16,images/car.png,3,1,0,1,1,0.6971890013862772,0,0,3,0,space,58,0,0,0
656,5PARTICIPANT_thisExp_2023-05-29_10h22.54.035.csv,-0.3559322033898305,17,images/car.png,3,0,1,0,1,0.7796459261765624,0,0,3,0,space,58,0,0,0
657,5PARTICIPANT_thisExp_2023-05-29_10h22.54.035.csv,-0.23728813559322035,18,images/bowtie.png,3,0,0,1,1,0.4022599771592161,0,1,3,0,space,58,0,0,0
658,5PARTICIPANT_thisExp_2023-05-29_10h22.54.035.csv,-0.22033898305084745,19,images/backpack.png,3,0,0,0,1,0.18448587962333116,0,1,3,0,space,58,0,0,0
659,5PARTICIPANT_thisExp_2023-05-29_10h22.54.035.csv,-0.11864406779661017,20,images/bowtie.png,3,0,0,1,1,0.10165365372649982,0,1,3,0,space,58,0,0,0
660,645cf9fc85bdf118416ed9ce_thisExp_2023-05-28_05h35.40.559.csv,-0.9830508474576272,1,start,1,0,0,1,1,1.859729595667322,1,0,3,1,space,33,0,0,0
661,645cf9fc85bdf118416ed9ce_thisExp_2023-05-28_05h35.40.559.csv,-0.9661016949152542,2,start,1,0,0,0,1,1.9173636913629237,1,0,3,1,left,33,0,1,0
662,645cf9fc85bdf118416ed9ce_thisExp_2023-05-28_05h35.40.559.csv,-0.9491525423728814,3,start,1,1,0,0,1,2.016767947151777,1,0,3,1,space,33,0,0,0
663,645cf9fc85bdf118416ed9ce_thisExp_2023-05-28_05h35.40.559.csv,-0.9152542372881356,4,start,1,0,1,1,1,2.834624113159234,1,1,3,1,space,33,0,0,0
664,645cf9fc85bdf118416ed9ce_thisExp_2023-05-28_05h35.40.559.csv,-0.8983050847457628,5,start,1,1,0,0,1,2.65296023478425,1,0,3,1,right,33,1,1,0
665,645cf9fc85bdf118416ed9ce_thisExp_2023-05-28_05h35.40.559.csv,-0.847457627118644,6,start,1,1,1,1,1,1.1284946631499793,1,1,3,1,right,33,1,1,1
666,645cf9fc85bdf118416ed9ce_thisExp_2023-05-28_05h35.40.559.csv,-0.7457627118644068,7,start,1,1,1,1,1,2.075559014415611,1,1,3,1,right,33,1,1,1
667,645cf9fc85bdf118416ed9ce_thisExp_2023-05-28_05h35.40.559.csv,-0.7288135593220338,8,start,1,1,1,0,1,1.3742217798856213,1,1,3,1,right,33,1,1,1
668,645cf9fc85bdf118416ed9ce_thisExp_2023-05-28_05h35.40.559.csv,-0.711864406779661,9,start,1,1,1,0,1,3.4330835705244773,1,1,3,1,right,33,1,1,1
669,645cf9fc85bdf118416ed9ce_thisExp_2023-05-28_05h35.40.559.csv,-0.6779661016949152,10,start,1,1,1,1,1,1.8352977712425385,1,1,3,1,right,33,1,1,1
670,645cf9fc85bdf118416ed9ce_thisExp_2023-05-28_05h35.40.559.csv,-0.576271186440678,11,start,1,0,1,1,1,2.657738880560839,1,0,3,1,left,33,0,1,1
671,645cf9fc85bdf118416ed9ce_thisExp_2023-05-28_05h35.40.559.csv,-0.423728813559322,12,start,1,1,0,1,1,1.104262960176924,1,0,3,1,right,33,1,1,0
672,645cf9fc85bdf118416ed9ce_thisExp_2023-05-28_05h35.40.559.csv,-0.3898305084745763,13,start,1,1,1,1,1,1.1486714885408467,1,1,3,1,right,33,1,1,1
673,645cf9fc85bdf118416ed9ce_thisExp_2023-05-28_05h35.40.559.csv,-0.3559322033898305,14,start,1,1,1,1,1,0.5341514490694873,1,1,3,1,right,33,1,1,1
674,645cf9fc85bdf118416ed9ce_thisExp_2023-05-28_05h35.40.559.csv,-0.288135593220339,15,start,1,1,1,1,1,0.6512829764612464,1,1,3,1,right,33,1,1,1
675,645cf9fc85bdf118416ed9ce_thisExp_2023-05-28_05h35.40.559.csv,-0.2542372881355932,16,start,1,1,1,1,1,0.20294084399669038,1,1,3,1,right,33,1,1,1
676,645cf9fc85bdf118416ed9ce_thisExp_2023-05-28_05h35.40.559.csv,-0.1864406779661017,17,start,1,1,1,1,1,0.16636153721522529,1,1,3,1,right,33,1,1,1
677,645cf9fc85bdf118416ed9ce_thisExp_2023-05-28_05h35.40.559.csv,-0.1694915254237288,18,start,1,1,1,0,1,0.26773443464208485,1,1,3,1,right,33,1,1,1
678,645cf9fc85bdf118416ed9ce_thisExp_2023-05-28_05h35.40.559.csv,-0.06779661016949153,19,start,1,0,1,1,1,0.39068982252601003,1,0,3,1,left,33,1,1,1
679,645cf9fc85bdf118416ed9ce_thisExp_2023-05-28_05h35.40.559.csv,-0.03389830508474576,20,start,1,1,0,1,1,0.0620353909194527,1,0,3,1,right,33,1,1,1
680,645cf9fc85bdf118416ed9ce_thisExp_2023-05-28_05h35.40.559.csv,-0.9830508474576272,1,images/baby.png,2,0,1,1,1,1.9964674583865798,0,0,3,0,space,33,0,0,1
681,645cf9fc85bdf118416ed9ce_thisExp_2023-05-28_05h35.40.559.csv,-0.9661016949152542,2,images/baby.png,2,0,0,0,1,2.1577905080908124,0,1,3,0,space,33,0,0,0
682,645cf9fc85bdf118416ed9ce_thisExp_2023-05-28_05h35.40.559.csv,-0.9491525423728814,3,images/toothbrush.png,2,1,0,0,1,2.156171074538509,1,0,3,0,left,33,0,1,0
683,645cf9fc85bdf118416ed9ce_thisExp_2023-05-28_05h35.40.559.csv,-0.9152542372881356,4,images/baby.png,2,0,1,1,1,2.148151039686982,0,1,3,0,space,33,0,0,0
684,645cf9fc85bdf118416ed9ce_thisExp_2023-05-28_05h35.40.559.csv,-0.8983050847457628,5,images/toothbrush.png,2,1,0,0,1,2.188744276570286,1,1,3,0,left,33,1,1,0
685,645cf9fc85bdf118416ed9ce_thisExp_2023-05-28_05h35.40.559.csv,-0.847457627118644,6,images/toothbrush.png,2,1,1,1,1,0.1823215567939546,1,1,3,0,left,33,1,1,1
686,645cf9fc85bdf118416ed9ce_thisExp_2023-05-28_05h35.40.559.csv,-0.7457627118644068,7,images/toothbrush.png,2,1,1,1,1,-0.10092591858996053,1,1,3,0,left,33,1,1,1
687,645cf9fc85bdf118416ed9ce_thisExp_2023-05-28_05h35.40.559.csv,-0.7288135593220338,8,images/toothbrush.png,2,1,1,0,1,0.698632110790515,1,1,3,0,left,33,1,1,1
